time,seconds_elapsed,z,y,x
1721411575902510000,0.079510009765625,-1.1546430587768555,0.09529781341552734,0.33012568950653076
1721411575915380200,0.092380126953125,-0.4719657897949219,0.34456026554107666,0.1603773832321167
1721411575928226600,0.1052265625,0.10997962951660156,0.031699538230895996,0.3973936438560486
1721411575941097000,0.118096923828125,0.4233083724975586,-0.06188809871673584,0.3767145276069641
1721411575953952500,0.130952392578125,0.47826385498046875,-0.12295997142791748,0.3566516935825348
1721411575966813700,0.143813720703125,0.3048744201660156,-0.10927271842956543,0.2570016384124756
1721411575979669500,0.15666943359375,0.16409873962402344,-0.05865895748138428,0.3087734580039978
1721411575992528000,0.16952783203125,0.1667642593383789,-0.01988852024078369,0.4077525734901428
1721411576005386000,0.182385986328125,0.1174173355102539,0.06761622428894043,0.400283545255661
1721411576018231600,0.1952314453125,0.1312103271484375,0.0005288124084472656,0.33916008472442627
1721411576031106600,0.2081064453125,0.09857749938964844,-0.13485586643218994,0.24793925881385803
1721411576043959800,0.220959716796875,0.10854053497314453,-0.12619030475616455,0.1913979947566986
1721411576056821000,0.233821044921875,0.03699684143066406,-0.06437671184539795,0.16886481642723083
1721411576069678000,0.246677978515625,0.095611572265625,-0.05697000026702881,0.27941015362739563
1721411576082550800,0.25955078125,0.10544967651367188,0.07387983798980713,0.367328941822052
1721411576095405000,0.272405029296875,0.03616046905517578,0.19917452335357666,0.37008899450302124
1721411576108250600,0.285250732421875,-0.003482818603515625,0.23817384243011475,0.30878350138664246
1721411576121102000,0.29810205078125,-0.03396320343017578,0.205643892288208,0.2198607325553894
1721411576133972000,0.310971923828125,-0.16461849212646484,0.10774946212768555,0.1404387354850769
1721411576146827800,0.323827880859375,-0.36328792572021484,0.09443533420562744,0.04811668395996094
1721411576159678500,0.336678466796875,-0.4392509460449219,0.1079859733581543,-0.059046387672424316
1721411576172537900,0.349537841796875,-0.4536123275756836,0.09486198425292969,-0.16214722394943237
1721411576185408000,0.362407958984375,-0.31492137908935547,0.03168976306915283,-0.2008131444454193
1721411576198252500,0.37525244140625,-0.11977100372314453,-0.07950246334075928,-0.22623193264007568
1721411576211140000,0.38814013671875,0.13748455047607422,-0.16771471500396729,-0.19481268525123596
1721411576223989800,0.40098974609375,0.28946876525878906,-0.1511439085006714,-0.08418488502502441
1721411576236839200,0.413839111328125,0.32635498046875,-0.020231246948242188,-0.04863041639328003
1721411576249709000,0.426708984375,0.3935413360595703,0.046723008155822754,-0.052996039390563965
1721411576262569500,0.439569580078125,0.4477252960205078,-0.04908788204193115,0.03183126449584961
1721411576275424000,0.452424072265625,0.4105815887451172,0.019226908683776855,-0.011668175458908081
1721411576288272400,0.4652724609375,0.28943824768066406,0.000725865364074707,-0.03863456845283508
1721411576301147400,0.4781474609375,0.20734786987304688,-0.06462597846984863,-0.08487659692764282
1721411576313998300,0.490998291015625,0.0873556137084961,-0.06598377227783203,-0.06996065378189087
1721411576326873000,0.503873046875,-0.005784034729003906,0.08597564697265625,-0.024084478616714478
1721411576339714800,0.51671484375,-0.1039724349975586,0.2530343532562256,0.006354391574859619
1721411576352562000,0.52956201171875,-0.10953235626220703,0.1537778377532959,0.09799626469612122
1721411576365439200,0.542439208984375,-0.17228984832763672,0.12981963157653809,0.21929478645324707
1721411576378281200,0.55528125,-0.2216196060180664,0.18650901317596436,0.3239888846874237
1721411576391128800,0.56812890625,-0.3364076614379883,0.1705484390258789,0.36385414004325867
1721411576403998200,0.580998291015625,-0.5031490325927734,0.12148678302764893,0.27176496386528015
1721411576416845800,0.593845703125,-0.6083202362060547,-0.03817331790924072,0.1745353639125824
1721411576429717500,0.606717529296875,-0.547938346862793,-0.13805437088012695,0.12343251705169678
1721411576442566000,0.61956591796875,-0.5559186935424805,-0.2032334804534912,0.023465633392333984
1721411576455429600,0.6324296875,-0.5505294799804688,-0.2697875499725342,0.025088846683502197
1721411576468281900,0.64528173828125,-0.4709043502807617,-0.18515729904174805,0.020367801189422607
1721411576481150500,0.658150390625,-0.47655582427978516,-0.19035828113555908,0.005213499069213867
1721411576494019800,0.671019775390625,-0.41559886932373047,-0.19852304458618164,0.013062536716461182
1721411576506862600,0.683862548828125,-0.34555625915527344,-0.19006502628326416,-0.03925663232803345
1721411576519723000,0.696722900390625,-0.18982219696044922,-0.2451179027557373,-0.07434475421905518
1721411576532581400,0.709581298828125,-0.1293649673461914,-0.15378355979919434,-0.12319982051849365
1721411576545441800,0.72244189453125,-0.17476463317871094,-0.0012587308883666992,-0.16566061973571777
1721411576558298600,0.735298583984375,-0.22407054901123047,0.04718303680419922,-0.144278883934021
1721411576571157200,0.7481572265625,-0.2401266098022461,0.0531618595123291,-0.04604610800743103
1721411576584013300,0.761013427734375,-0.06619453430175781,0.14039075374603271,0.08056235313415527
1721411576596873200,0.773873291015625,0.11723899841308594,0.19483613967895508,0.20053640007972717
1721411576609733400,0.7867333984375,0.24981689453125,0.1420762538909912,0.21013814210891724
1721411576622604000,0.79960400390625,0.37030601501464844,-0.052536845207214355,0.1417022943496704
1721411576635460000,0.812460205078125,0.1863384246826172,-0.23398911952972412,0.06883195042610168
1721411576648305700,0.8253056640625,0.0016078948974609375,-0.1583646535873413,0.009592562913894653
1721411576661177600,0.838177490234375,-0.1935586929321289,-0.10188651084899902,0.05199459195137024
1721411576674036200,0.8510361328125,-0.24535751342773438,-0.06469762325286865,0.1682838499546051
1721411576686896400,0.863896484375,-0.14071083068847656,0.01636660099029541,0.1845179796218872
1721411576699779000,0.876779052734375,-0.08685588836669922,-0.16265273094177246,0.2364863157272339
1721411576712588000,0.889588134765625,-0.04429340362548828,-0.21530449390411377,0.258124440908432
1721411576725458400,0.90245849609375,-0.08224296569824219,-0.22674524784088135,0.2866557836532593
1721411576738307800,0.915307861328125,-0.09256362915039062,-0.09471416473388672,0.34116479754447937
1721411576751179000,0.928178955078125,-0.10325431823730469,0.07438373565673828,0.36608970165252686
1721411576764031200,0.94103125,-0.27139854431152344,0.3014981746673584,0.29690447449684143
1721411576776893000,0.953892822265625,-0.32262516021728516,0.809472918510437,-0.014280825853347778
1721411576789751300,0.966751220703125,-0.15395641326904297,0.47906064987182617,0.6289104223251343
1721411576802609700,0.979609619140625,0.00048542022705078125,-0.631144642829895,2.082000970840454
1721411576815484200,0.992484130859375,-0.061303138732910156,-0.9755284190177917,2.6274242401123047
1721411576828326700,1.00532666015625,-0.3018016815185547,0.2304626703262329,1.0909218788146973
1721411576841197600,1.018197509765625,-0.3210010528564453,1.6882909536361694,-0.911995530128479
1721411576854054000,1.031053955078125,-0.07108688354492188,2.415790557861328,-1.8419251441955566
1721411576866911700,1.043911865234375,0.3130531311035156,1.7876149415969849,-0.9611486792564392
1721411576879758000,1.056758056640625,0.7164840698242188,0.0338132381439209,1.0973249673843384
1721411576892618200,1.0696181640625,0.8687286376953125,-1.3457175493240356,2.751960039138794
1721411576905477000,1.08247705078125,0.6002740859985352,-1.1086351871490479,2.6640875339508057
1721411576918325500,1.095325439453125,0.21725845336914062,0.37855052947998047,0.9347072839736938
1721411576931194400,1.1081943359375,0.015244483947753906,1.9256901741027832,-1.0766514539718628
1721411576944050400,1.121050537109375,0.16080093383789062,2.257197380065918,-1.8741910457611084
1721411576956907000,1.133906982421875,0.4566621780395508,1.0746797323226929,-0.751063346862793
1721411576969786400,1.146786376953125,0.5610618591308594,-0.5049797296524048,1.3162057399749756
1721411576982637300,1.15963720703125,0.27488231658935547,-1.419782042503357,2.801159381866455
1721411576995483600,1.172483642578125,-0.2936410903930664,-0.9256629347801208,2.5181221961975098
1721411577008347600,1.18534765625,-0.8333578109741211,0.7502343654632568,0.7441830635070801
1721411577021192700,1.198192626953125,-1.0486154556274414,2.279848098754883,-1.092761516571045
1721411577034064100,1.211064208984375,-0.8133726119995117,2.6813387870788574,-1.5112922191619873
1721411577046919200,1.223919189453125,-0.4200906753540039,1.5945076942443848,-0.17078900337219238
1721411577059777300,1.23677734375,-0.16028976440429688,-0.09721457958221436,1.8993396759033203
1721411577072637200,1.24963720703125,-0.16434574127197266,-1.0846683979034424,3.0226378440856934
1721411577085486600,1.262486572265625,-0.497711181640625,-0.5634812116622925,2.342022180557251
1721411577098356500,1.2753564453125,-0.7432785034179688,1.0512715578079224,0.14124028384685516
1721411577111213000,1.288213134765625,-0.5191431045532227,0.5355840921401978,0.5639083385467529
1721411577124070700,1.301070556640625,-0.5469255447387695,0.6390029191970825,0.29517167806625366
1721411577136942600,1.313942626953125,-0.4359092712402344,0.6269936561584473,0.20898352563381195
1721411577149785000,1.32678515625,-0.19519615173339844,0.5202008485794067,0.17770051956176758
1721411577162638800,1.339638916015625,0.017154693603515625,0.43597519397735596,0.12150636315345764
1721411577175490800,1.35249072265625,0.0958242416381836,0.4079437255859375,0.0011886954307556152
1721411577188355600,1.36535546875,0.06990623474121094,0.30384838581085205,-0.12766700983047485
1721411577201224200,1.37822412109375,-0.026933670043945312,0.1839522123336792,-0.18344512581825256
1721411577214080500,1.39108056640625,-0.046889305114746094,0.06198155879974365,-0.16251525282859802
1721411577226939000,1.40393896484375,0.06618785858154297,-0.013738393783569336,-0.09523999691009521
1721411577239787300,1.416787353515625,0.2993917465209961,-0.15600121021270752,-0.05240395665168762
1721411577252658200,1.429658203125,0.5022668838500977,-0.23445773124694824,-0.019467860460281372
1721411577265510700,1.4425107421875,0.7157621383666992,-0.4749981164932251,-0.10410851240158081
1721411577278376700,1.455376708984375,0.7050457000732422,-0.7515010833740234,-0.23175862431526184
1721411577291228400,1.468228515625,0.3882179260253906,-0.947576105594635,-0.3814089894294739
1721411577304100600,1.4811005859375,-0.038173675537109375,-1.0058058500289917,-0.4489077031612396
1721411577316961800,1.4939619140625,-0.1761341094970703,-0.9063043594360352,-0.41428643465042114
1721411577329820000,1.50681982421875,-0.04266357421875,-0.8043121099472046,-0.3320246636867523
1721411577342678000,1.519677978515625,0.15230846405029297,-0.6916944980621338,-0.2674557566642761
1721411577355539700,1.532539794921875,0.20914745330810547,-0.5635831356048584,-0.4935702979564667
1721411577368385300,1.54538525390625,0.2554912567138672,-0.9513866901397705,0.25652316212654114
1721411577381255700,1.558255615234375,0.3367118835449219,-1.5823538303375244,1.0007450580596924
1721411577394108700,1.571108642578125,-0.05185413360595703,-1.1905913352966309,0.5796038508415222
1721411577406970600,1.583970703125,-0.3621997833251953,0.40874433517456055,-1.2681117057800293
1721411577419816200,1.596816162109375,-0.33800315856933594,1.4295146465301514,-2.3673369884490967
1721411577432677600,1.609677734375,-0.04317474365234375,1.0420057773590088,-1.7288103103637695
1721411577445536500,1.62253662109375,0.1460704803466797,-0.39943456649780273,0.36386436223983765
1721411577458395000,1.635394775390625,0.013325691223144531,-1.6367498636245728,2.181457281112671
1721411577471251000,1.6482509765625,-0.23684120178222656,-1.9940826892852783,2.5893800258636475
1721411577484107500,1.661107421875,-0.4562854766845703,-0.8754420280456543,1.1852056980133057
1721411577496966700,1.673966552734375,-0.6572151184082031,0.7726149559020996,-0.9454600214958191
1721411577509824800,1.68682470703125,-0.6714649200439453,1.4871106147766113,-2.068153142929077
1721411577522683400,1.699683349609375,-0.49220943450927734,0.854421854019165,-1.4478974342346191
1721411577535540200,1.712540283203125,-0.26929664611816406,-0.8338538408279419,0.566834568977356
1721411577548400600,1.725400634765625,-0.21287250518798828,-2.0993824005126953,2.22334885597229
1721411577561259300,1.73825927734375,-0.42250633239746094,-2.039682388305664,2.200911283493042
1721411577574118700,1.75111865234375,-0.698267936706543,-0.6746605634689331,0.5155594348907471
1721411577586975700,1.763975830078125,-0.8112525939941406,0.7543497085571289,-1.3973736763000488
1721411577599834600,1.776834716796875,-0.7105417251586914,1.6164329051971436,-2.0267491340637207
1721411577612691000,1.78969091796875,-0.32437992095947266,1.225043773651123,-0.8650505542755127
1721411577625551600,1.802551513671875,0.03584766387939453,-0.2071361541748047,1.301619529724121
1721411577638406700,1.81540673828125,0.18761539459228516,-1.2898571491241455,2.8347127437591553
1721411577651288000,1.8282880859375,0.033687591552734375,-1.0697658061981201,2.48512601852417
1721411577664123400,1.841123291015625,-0.12929630279541016,0.3029193878173828,0.5890635848045349
1721411577676986400,1.853986328125,-0.016170501708984375,1.655381441116333,-1.4867475032806396
1721411577689841400,1.86684130859375,0.2676105499267578,1.8864253759384155,-2.1616451740264893
1721411577702703400,1.879703369140625,0.5345859527587891,0.5204645395278931,-0.5342574119567871
1721411577715558700,1.89255859375,0.30689334869384766,0.06169760227203369,0.07354682683944702
1721411577728417000,1.9054169921875,0.3628120422363281,0.029566645622253418,0.29950031638145447
1721411577741275400,1.918275390625,0.4848670959472656,0.1361558437347412,0.3073423206806183
1721411577754136300,1.93113623046875,0.7244873046875,0.08215296268463135,0.207218199968338
1721411577767009000,1.944009033203125,0.7647533416748047,0.062071919441223145,-0.0066367387771606445
1721411577779856400,1.9568564453125,0.5681314468383789,0.08052206039428711,-0.16396033763885498
1721411577792727300,1.969727294921875,0.13489818572998047,0.17809724807739258,-0.23935586214065552
1721411577805581600,1.98258154296875,-0.4648284912109375,0.43773937225341797,-0.22426846623420715
1721411577818412300,1.995412353515625,-0.8354177474975586,0.8218330144882202,-0.042977213859558105
1721411577831308000,2.00830810546875,-0.9139108657836914,1.2178229093551636,0.1638564169406891
1721411577844142600,2.021142578125,-0.872197151184082,1.4798625707626343,0.3160461187362671
1721411577856993000,2.033992919921875,-0.6833982467651367,1.6254963874816895,0.307601660490036
1721411577869905200,2.0469052734375,-0.4219789505004883,1.4654426574707031,0.2778465151786804
1721411577882729000,2.05972900390625,-0.3339672088623047,1.2675843238830566,0.21856285631656647
1721411577895583700,2.072583740234375,-0.4290046691894531,1.1837685108184814,0.10477226972579956
1721411577908442000,2.085442138671875,-0.6097078323364258,1.1191595792770386,0.080145925283432
1721411577921287000,2.098286865234375,-0.5820989608764648,1.1953071355819702,0.1681162416934967
1721411577934171600,2.111171630859375,-0.33696556091308594,1.3658936023712158,0.2511005103588104
1721411577947027200,2.124027099609375,0.05654144287109375,1.3974034786224365,0.3936024308204651
1721411577959885600,2.136885498046875,0.3728446960449219,1.5642974376678467,0.3020881116390228
1721411577972731100,2.149731201171875,0.5102443695068359,1.5194847583770752,-0.03242890536785126
1721411577985603300,2.162603271484375,0.6600074768066406,1.2645386457443237,-0.2916015088558197
1721411577998451700,2.17545166015625,0.3570127487182617,1.0594297647476196,-0.559908926486969
1721411578011320800,2.18832080078125,-0.08557701110839844,1.1515116691589355,-0.5264126062393188
1721411578024161800,2.201161865234375,-0.11484622955322266,1.359351396560669,-0.48224586248397827
1721411578037023500,2.2140234375,0.16311359405517578,1.3358434438705444,-0.26719844341278076
1721411578049883400,2.22688330078125,0.7754850387573242,1.299652099609375,-0.18634545803070068
1721411578062734000,2.239734130859375,1.4195594787597656,0.770988941192627,-0.2082882821559906
1721411578075600400,2.252600341796875,1.6416749954223633,-0.028533935546875,-0.3536231517791748
1721411578088453000,2.265453125,1.2858591079711914,-0.643237829208374,-0.3300471305847168
1721411578101316400,2.27831640625,0.6913595199584961,-0.9017472863197327,-0.300458699464798
1721411578114163500,2.29116357421875,0.1370849609375,-0.9770586490631104,-0.2537355422973633
1721411578127031600,2.304031494140625,-0.2327413558959961,-1.0724940299987793,-0.1106681227684021
1721411578139891700,2.3168916015625,-0.3969078063964844,-1.0963876247406006,0.03128120303153992
1721411578152750000,2.32975,-0.3235769271850586,-1.2085012197494507,-0.01365572214126587
1721411578165608700,2.342608642578125,-0.031459808349609375,-1.542691946029663,-0.06572744250297546
1721411578178467300,2.35546728515625,0.10213947296142578,-1.7945441007614136,-0.2324957549571991
1721411578191313700,2.368313720703125,-0.056130409240722656,-1.9439266920089722,-0.3418283760547638
1721411578204186600,2.3811865234375,-0.3343477249145508,-1.854732632637024,-0.2629106640815735
1721411578217032200,2.3940322265625,-0.47719860076904297,-1.6387690305709839,-0.12398332357406616
1721411578229903600,2.406903564453125,-0.3294248580932617,-1.3791265487670898,0.058876246213912964
1721411578242759400,2.419759521484375,0.061568260192871094,-1.379683017730713,0.24137309193611145
1721411578255616800,2.43261669921875,0.4087228775024414,-1.274956464767456,0.31841400265693665
1721411578268480300,2.445480224609375,0.6113243103027344,-1.121730089187622,0.3323404788970947
1721411578281351000,2.458350830078125,0.5284051895141602,-0.9976274967193604,0.3131937086582184
1721411578294191400,2.47119140625,0.08315849304199219,-0.8342342376708984,0.21108004450798035
1721411578307051800,2.4840517578125,-0.5154533386230469,-0.7405173778533936,0.12693125009536743
1721411578319911700,2.49691162109375,-1.1014471054077148,-0.6102591753005981,0.15145501494407654
1721411578332768800,2.509768798828125,-1.2196826934814453,-0.3799707889556885,0.38857245445251465
1721411578345627600,2.522627685546875,-0.9328317642211914,-0.08158695697784424,0.6511996984481812
1721411578358486800,2.53548681640625,-0.5356121063232422,-0.09516572952270508,0.7786685228347778
1721411578371334400,2.54833447265625,0.03478050231933594,-0.24329853057861328,0.8311746120452881
1721411578384205800,2.561205810546875,0.5251846313476562,-0.3372877836227417,0.7105625867843628
1721411578397079300,2.574079345703125,0.63397216796875,-0.3877127170562744,0.4641900360584259
1721411578409933000,2.58693310546875,0.4237203598022461,-0.4339243173599243,0.2574469745159149
1721411578422805800,2.5998056640625,0.0647878646850586,-0.4530203342437744,0.15607622265815735
1721411578435667700,2.612667724609375,-0.21807575225830078,-0.37024569511413574,0.11807036399841309
1721411578448490500,2.625490478515625,-0.30369091033935547,-0.20724499225616455,0.19752708077430725
1721411578461371600,2.63837158203125,-0.21966075897216797,-0.15157604217529297,0.20332995057106018
1721411578474225700,2.6512255859375,-0.09432506561279297,-0.24197173118591309,0.3768084645271301
1721411578487069400,2.6640693359375,0.024567604064941406,-0.09357070922851562,0.4403250515460968
1721411578499947000,2.676947021484375,0.12514686584472656,-0.07571744918823242,0.52097487449646
1721411578512803300,2.68980322265625,-0.018205642700195312,0.07231485843658447,0.4911077618598938
1721411578525659000,2.702658935546875,-0.3469352722167969,0.21659624576568604,0.2975444793701172
1721411578538515200,2.71551513671875,-0.6953878402709961,0.25986194610595703,0.19098322093486786
1721411578551358500,2.7283583984375,-0.8545188903808594,0.3880676031112671,0.05328133702278137
1721411578564224500,2.741224609375,-0.8609514236450195,0.26141512393951416,-0.016345232725143433
1721411578577081300,2.754081298828125,-0.8121347427368164,0.2545616626739502,0.03656160831451416
1721411578589930000,2.766929931640625,-0.7653751373291016,0.4671560525894165,0.13584111630916595
1721411578602801700,2.7798017578125,-0.6760387420654297,0.7215986251831055,0.2681378722190857
1721411578615657000,2.792656982421875,-0.50421142578125,0.8290005922317505,0.3538346290588379
1721411578628515300,2.805515380859375,-0.22172069549560547,0.7987105846405029,0.4022311568260193
1721411578641373700,2.818373779296875,0.008055686950683594,0.8290494680404663,0.3375509977340698
1721411578654234000,2.831234130859375,0.04868316650390625,0.8066897392272949,0.23258846998214722
1721411578667091200,2.84409130859375,-0.09578990936279297,0.8607646226882935,0.12747806310653687
1721411578679949300,2.85694921875,-0.2924337387084961,0.8888187408447266,0.07320225238800049
1721411578692808000,2.869807861328125,-0.35552024841308594,0.8962301015853882,0.055460453033447266
1721411578705666600,2.88266650390625,-0.30322837829589844,0.8839037418365479,0.1553952693939209
1721411578718527000,2.89552685546875,-0.15550613403320312,0.9644086360931396,0.3167247772216797
1721411578731384600,2.908384521484375,0.06478404998779297,1.0108755826950073,0.45984283089637756
1721411578744232200,2.921232177734375,0.34179115295410156,1.0314744710922241,0.5411465764045715
1721411578757119200,2.934119140625,0.5014448165893555,0.8527374267578125,0.4473802149295807
1721411578769971000,2.946970947265625,0.5415258407592773,0.5795090198516846,0.28367194533348083
1721411578782818600,2.959818603515625,0.41512298583984375,0.31403934955596924,0.12610366940498352
1721411578795692800,2.97269287109375,0.40076255798339844,0.29695427417755127,0.15388131141662598
1721411578808535800,2.985535888671875,0.28960609436035156,0.5902704000473022,0.12168222665786743
1721411578821409800,2.998409912109375,0.28493499755859375,0.772951602935791,0.15961521863937378
1721411578834259500,3.011259521484375,0.4823341369628906,0.7555474042892456,0.14396044611930847
1721411578847125200,3.024125244140625,0.7197637557983398,0.5241366624832153,0.0807596743106842
1721411578859982000,3.036982177734375,0.7526798248291016,0.3991965055465698,-0.0006216764450073242
1721411578872823300,3.0498232421875,0.6042280197143555,0.2621805667877197,-0.08229756355285645
1721411578885689000,3.062689208984375,0.48018455505371094,0.17081809043884277,-0.1412453055381775
1721411578898547200,3.075547119140625,0.331146240234375,0.260017991065979,-0.17701640725135803
1721411578911404300,3.088404296875,0.3029518127441406,0.2676767110824585,-0.22247540950775146
1721411578924261400,3.101261474609375,0.30431652069091797,0.20212531089782715,-0.23802068829536438
1721411578937121300,3.114121337890625,0.29828548431396484,0.12314498424530029,-0.24358868598937988
1721411578949978400,3.126978271484375,0.21770000457763672,0.014835357666015625,-0.2084982693195343
1721411578962827000,3.139826904296875,0.05327606201171875,-0.0967249870300293,-0.11987608671188354
1721411578975698400,3.152698486328125,-0.0009679794311523438,-0.11210751533508301,-0.025096237659454346
1721411578988554200,3.16555419921875,-0.13637161254882812,-0.1123511791229248,0.10563060641288757
1721411579001412000,3.178412109375,-0.1178731918334961,0.08903193473815918,0.14488083124160767
1721411579014286300,3.191286376953125,-0.0670328140258789,-0.03359413146972656,0.17622968554496765
1721411579027140600,3.204140625,0.16642379760742188,-0.41332733631134033,0.26022839546203613
1721411579039998700,3.216998779296875,0.43381595611572266,-0.6907030344009399,0.2220320999622345
1721411579052844800,3.2298447265625,0.6218843460083008,-1.0013351440429688,0.05867065489292145
1721411579065703200,3.242703125,0.632899284362793,-1.3543689250946045,-0.027332529425621033
1721411579078562000,3.25556201171875,0.46656036376953125,-1.5040762424468994,-0.22597558796405792
1721411579091420400,3.26842041015625,0.13645648956298828,-1.6206586360931396,-0.36787980794906616
1721411579104281600,3.281281494140625,-0.26307201385498047,-1.5353273153305054,-0.3815528452396393
1721411579117140700,3.294140625,-0.5087318420410156,-1.3275306224822998,-0.3188140094280243
1721411579129995800,3.306995849609375,-0.6384220123291016,-0.9885647296905518,-0.11904707551002502
1721411579142858500,3.3198583984375,-0.7011175155639648,-0.5150841474533081,0.1805456429719925
1721411579155713800,3.3327138671875,-0.8247766494750977,-0.038790225982666016,0.4016098380088806
1721411579168574500,3.345574462890625,-0.7432136535644531,0.2584552764892578,0.6112847328186035
1721411579181433300,3.358433349609375,-0.6014432907104492,0.3909456729888916,0.6713529825210571
1721411579194291500,3.37129150390625,-0.6061916351318359,0.38648104667663574,0.5963048934936523
1721411579207149000,3.384149169921875,-0.5817432403564453,0.239776611328125,0.4695298373699188
1721411579220009500,3.397009521484375,-0.49044132232666016,0.11177992820739746,0.31862640380859375
1721411579232853000,3.40985302734375,-0.3771858215332031,-0.10247993469238281,0.09592771530151367
1721411579245742000,3.4227421875,-0.2528963088989258,-0.4843251705169678,-0.1133202314376831
1721411579258580200,3.435580322265625,-0.18682098388671875,-0.7315703630447388,-0.1366182565689087
1721411579271424500,3.448424560546875,-0.2213878631591797,-0.5895415544509888,-0.1776953935623169
1721411579284291000,3.461291015625,-0.11859416961669922,-0.5316472053527832,-0.10957568883895874
1721411579297159700,3.47415966796875,-0.018006324768066406,-0.3037874698638916,-0.015775024890899658
1721411579310017500,3.487017578125,-0.043906211853027344,-0.008600831031799316,0.10605281591415405
1721411579322875400,3.49987548828125,-0.05484580993652344,0.4205923080444336,0.274503618478775
1721411579335735000,3.512735107421875,-0.1112051010131836,0.6612944602966309,0.4132644534111023
1721411579348591400,3.52559130859375,-0.061598777770996094,0.741301417350769,0.43397942185401917
1721411579361468700,3.53846875,-0.13968276977539062,0.6951959133148193,0.32284459471702576
1721411579374324200,3.55132421875,-0.3559913635253906,0.5629605054855347,0.14499858021736145
1721411579387182800,3.564182861328125,-0.5307073593139648,0.4196133613586426,0.0009825825691223145
1721411579400041700,3.577041748046875,-0.5741415023803711,0.3155430555343628,-0.12677308917045593
1721411579412883700,3.5898837890625,-0.49855804443359375,0.08719992637634277,-0.21871459484100342
1721411579425746700,3.60274658203125,-0.4039926528930664,-0.1008148193359375,-0.18419310450553894
1721411579438603800,3.615603759765625,-0.39583683013916016,-0.04050135612487793,-0.1910724937915802
1721411579451462400,3.62846240234375,-0.4008054733276367,0.09029662609100342,-0.10466557741165161
1721411579464321000,3.641321044921875,-0.44888973236083984,0.3814079761505127,0.027500122785568237
1721411579477185500,3.654185546875,-0.4674816131591797,0.6616147756576538,0.11637887358665466
1721411579490037000,3.667037109375,-0.33461570739746094,0.9162204265594482,0.19295349717140198
1721411579502896600,3.679896728515625,-0.1584920883178711,1.0771582126617432,0.19598916172981262
1721411579515766300,3.692766357421875,-0.016196250915527344,1.0837126970291138,0.19988244771957397
1721411579528611600,3.705611572265625,0.22878742218017578,1.1600289344787598,0.21955539286136627
1721411579541472300,3.71847216796875,0.46616172790527344,1.033997654914856,0.24134144186973572
1721411579554332000,3.731331787109375,0.7427234649658203,0.8334910869598389,0.16862984001636505
1721411579567188500,3.7441884765625,0.9693975448608398,0.5265499353408813,0.04716584086418152
1721411579580048400,3.75704833984375,1.0846576690673828,0.26783645153045654,-0.07859495282173157
1721411579592907000,3.769906982421875,0.9671602249145508,0.1695232391357422,-0.2338813841342926
1721411579605759500,3.782759521484375,0.7934322357177734,0.07957935333251953,-0.2957288920879364
1721411579618625800,3.795625732421875,0.7310523986816406,-0.1374824047088623,-0.1881612241268158
1721411579631484200,3.808484130859375,0.8932962417602539,-0.4409216642379761,-0.1674654334783554
1721411579644340500,3.821340576171875,1.0050640106201172,-0.8986787796020508,-0.17873354256153107
1721411579657199600,3.83419970703125,0.9221439361572266,-1.4506375789642334,-0.2358269989490509
1721411579670058200,3.847058349609375,0.6340141296386719,-1.5224946737289429,-0.31171661615371704
1721411579682916600,3.85991650390625,0.26019859313964844,-1.560807228088379,-0.14439183473587036
1721411579695775700,3.872775634765625,0.11648273468017578,-1.230717420578003,0.04978172481060028
1721411579708634000,3.885634033203125,0.1486186981201172,-0.9398919343948364,0.27843761444091797
1721411579721487000,3.898487060546875,0.3760690689086914,-0.7078542709350586,0.40069276094436646
1721411579734366000,3.911365966796875,0.5629663467407227,-0.7040610313415527,0.4051310122013092
1721411579747222300,3.92422216796875,0.5420389175415039,-0.6930065155029297,0.2684629559516907
1721411579760066800,3.93706689453125,0.22914505004882812,-0.948434591293335,0.09288918972015381
1721411579772929800,3.9499296875,-0.0982980728149414,-1.1155962944030762,-0.06201992928981781
1721411579785789400,3.96278955078125,-0.3971900939941406,-1.1360957622528076,-0.13003255426883698
1721411579798659300,3.975659423828125,-0.5704107284545898,-0.9901002645492554,-0.19846290349960327
1721411579811499500,3.98849951171875,-0.6194076538085938,-0.6927636861801147,-0.22730395197868347
1721411579824361200,4.001361328125,-0.5858526229858398,-0.4361135959625244,-0.12928670644760132
1721411579837220600,4.014220703125,-0.6049394607543945,-0.1860513687133789,0.04901018738746643
1721411579850078000,4.027077880859375,-0.6103401184082031,0.054486751556396484,0.27941280603408813
1721411579862934500,4.0399345703125,-0.48128414154052734,0.4583780765533447,0.5968111753463745
1721411579875795500,4.05279541015625,-0.2647237777709961,0.885185718536377,0.7853135466575623
1721411579888654000,4.065654052734375,-0.05286979675292969,0.9693598747253418,0.847318708896637
1721411579901509600,4.078509521484375,0.21170616149902344,0.8317432403564453,0.7308441996574402
1721411579914385000,4.091385009765625,0.4473123550415039,0.5280463695526123,0.545319676399231
1721411579927244300,4.104244384765625,0.549189567565918,0.11399269104003906,0.3840678036212921
1721411579940086800,4.117086669921875,0.4671144485473633,-0.22789299488067627,0.25770509243011475
1721411579952959500,4.12995947265625,0.2641420364379883,-0.44965946674346924,0.1365579515695572
1721411579965827000,4.1428271484375,-0.04567146301269531,-0.48490631580352783,0.018537044525146484
1721411579978674400,4.15567431640625,-0.3334484100341797,-0.43285274505615234,-0.09202149510383606
1721411579991534000,4.1685341796875,-0.5775060653686523,-0.34948742389678955,-0.08192387223243713
1721411580004394000,4.18139404296875,-0.7693243026733398,-0.22712135314941406,-0.013332098722457886
1721411580017258500,4.194258544921875,-0.9051370620727539,-0.15971159934997559,0.12256217002868652
1721411580030098700,4.2070986328125,-0.9310741424560547,-0.09253048896789551,0.2745795249938965
1721411580042977000,4.21997705078125,-0.90460205078125,-0.004941701889038086,0.3885784447193146
1721411580055811300,4.232811279296875,-0.9083652496337891,0.0872957706451416,0.5423243045806885
1721411580068664000,4.2456640625,-0.9278535842895508,0.17441630363464355,0.6838572025299072
1721411580081525200,4.258525146484375,-0.9166889190673828,0.38921260833740234,0.7636117935180664
1721411580094391800,4.271391845703125,-0.8577203750610352,0.4153327941894531,0.7241144776344299
1721411580107240000,4.284239990234375,-0.8175220489501953,0.3887670040130615,0.582636296749115
1721411580120100900,4.297100830078125,-0.8067560195922852,0.34261322021484375,0.34886181354522705
1721411580132969700,4.3099697265625,-0.8202219009399414,0.2152879238128662,0.20427574217319489
1721411580145827000,4.3228271484375,-0.8260831832885742,0.2805352210998535,0.16549590229988098
1721411580158674000,4.335673828125,-0.7208986282348633,0.36419057846069336,0.1547422707080841
1721411580171546000,4.348546142578125,-0.4526786804199219,0.37692904472351074,0.157817542552948
1721411580184401200,4.361401123046875,-0.16915512084960938,0.4087406396865845,0.22981131076812744
1721411580197260300,4.37426025390625,-0.15250301361083984,0.5486345291137695,0.35112854838371277
1721411580210119200,4.387119140625,-0.026018142700195312,0.7066642045974731,0.4642565846443176
1721411580222980400,4.39998046875,0.24425792694091797,0.7768675088882446,0.48271167278289795
1721411580235853000,4.41285302734375,0.5400161743164062,0.547910213470459,0.4608835279941559
1721411580248707000,4.42570703125,0.7209205627441406,0.47445428371429443,0.32113656401634216
1721411580261563000,4.43856298828125,0.6923980712890625,0.5053665637969971,0.26800093054771423
1721411580274422300,4.45142236328125,0.5032062530517578,0.5479651689529419,0.22884559631347656
1721411580287270700,4.464270751953125,0.34279632568359375,0.6302710771560669,0.28246480226516724
1721411580300145400,4.4771455078125,0.4024782180786133,0.7945986986160278,0.3067431151866913
1721411580312999400,4.48999951171875,0.6856536865234375,0.9057378768920898,0.32317253947257996
1721411580325856800,4.502856689453125,1.0337944030761719,0.7473549842834473,0.4352446496486664
1721411580338718200,4.51571826171875,1.3545684814453125,0.5269801616668701,0.45543158054351807
1721411580351576000,4.528576171875,1.4648723602294922,0.19167757034301758,0.4694245755672455
1721411580364434400,4.541434326171875,1.3769760131835938,-0.09168052673339844,0.33134403824806213
1721411580377266200,4.55426611328125,1.0378313064575195,-0.33835721015930176,0.14564937353134155
1721411580390131500,4.56713134765625,0.6992769241333008,-0.6251100301742554,0.02713868021965027
1721411580402989300,4.5799892578125,0.33603858947753906,-0.8604655265808105,-0.039805203676223755
1721411580415859500,4.592859375,0.14641952514648438,-1.00210440158844,-0.06548655033111572
1721411580428715000,4.605715087890625,0.23954486846923828,-1.2447268962860107,0.05710327625274658
1721411580441573600,4.61857373046875,0.48577404022216797,-1.3479944467544556,0.08861896395683289
1721411580454438000,4.63143798828125,0.9342374801635742,-1.6098670959472656,0.1255616843700409
1721411580467289300,4.644289306640625,1.0884227752685547,-1.7938793897628784,0.023719683289527893
1721411580480148000,4.65714794921875,0.8947515487670898,-1.9268667697906494,-0.2140982747077942
1721411580493029600,4.670029541015625,0.2867012023925781,-2.0302276611328125,-0.545820951461792
1721411580505878500,4.68287841796875,-0.3725910186767578,-2.016531467437744,-0.8660283088684082
1721411580518737000,4.69573681640625,-0.8263883590698242,-1.885606288909912,-0.9767466187477112
1721411580531583500,4.70858349609375,-1.1362733840942383,-1.7290921211242676,-0.8412106037139893
1721411580544452900,4.721452880859375,-1.2126474380493164,-1.4786159992218018,-0.6710911393165588
1721411580557298000,4.7342978515625,-1.3208189010620117,-1.2893067598342896,-0.5097264647483826
1721411580570159900,4.747159912109375,-1.1331043243408203,-0.8981565237045288,-0.21164436638355255
1721411580583006500,4.76000634765625,-0.9001846313476562,-0.45879065990448,0.02468891441822052
1721411580595879200,4.772879150390625,-0.7052993774414062,-0.04031658172607422,0.20774710178375244
1721411580608735700,4.78573583984375,-0.583714485168457,0.24994850158691406,0.3499913513660431
1721411580621593900,4.79859375,-0.6015548706054688,0.5148460865020752,0.2943943440914154
1721411580634452700,4.81145263671875,-0.5538539886474609,0.5199184417724609,0.24734769761562347
1721411580647309000,4.82430908203125,-0.3191795349121094,0.3099029064178467,0.12254153192043304
1721411580660170800,4.837170654296875,-0.06223583221435547,-0.026549816131591797,-0.09109647572040558
1721411580673028600,4.850028564453125,0.0574493408203125,-0.41120100021362305,-0.3185197114944458
1721411580685885700,4.8628857421875,0.2226276397705078,-0.7108668088912964,-0.4999113082885742
1721411580698746000,4.87574609375,0.1665325164794922,-0.8419066667556763,-0.6244087219238281
1721411580711604500,4.8886044921875,-0.05074024200439453,-0.6230630874633789,-0.6501946449279785
1721411580724479500,4.9014794921875,-0.3282909393310547,-0.33743739128112793,-0.5810084939002991
1721411580737324500,4.914324462890625,-0.4042177200317383,-0.03956758975982666,-0.3647557497024536
1721411580750197500,4.927197509765625,-0.29727745056152344,0.25408005714416504,-0.15589863061904907
1721411580763051300,4.94005126953125,-0.16962337493896484,0.480241060256958,-0.011387228965759277
1721411580775911000,4.952910888671875,-0.06524848937988281,0.630859375,0.14976459741592407
1721411580788757200,4.96575732421875,-0.07890129089355469,0.6491062641143799,0.18616874516010284
1721411580801607700,4.978607666015625,-0.13563251495361328,0.6337718963623047,0.1859249770641327
1721411580814493700,4.99149365234375,-0.14113235473632812,0.5973289012908936,0.12731176614761353
1721411580827345200,5.00434521484375,-0.17637157440185547,0.4353013038635254,0.1327730119228363
1721411580840185600,5.017185546875,-0.15500164031982422,0.2878655195236206,0.17382359504699707
1721411580853051000,5.03005078125,-0.0761404037475586,0.178602933883667,0.1436123102903366
1721411580865905200,5.0429052734375,-0.020193099975585938,-0.002529740333557129,0.0875711739063263
1721411580878781200,5.05578125,-0.05906200408935547,-0.06181228160858154,-0.061184078454971313
1721411580891653600,5.068653564453125,-0.17368793487548828,0.029180049896240234,-0.18179109692573547
1721411580904487000,5.08148681640625,-0.34134864807128906,0.22000110149383545,-0.3047666847705841
1721411580917355800,5.094355712890625,-0.49866580963134766,0.3998497724533081,-0.26482418179512024
1721411580930200600,5.10720068359375,-0.6061458587646484,0.7672216892242432,-0.14079970121383667
1721411580943074300,5.12007421875,-0.5022811889648438,0.9594235420227051,-0.05556082725524902
1721411580955944400,5.1329443359375,-0.26453113555908203,1.0082249641418457,0.07814045250415802
1721411580968787200,5.145787109375,-0.12217140197753906,1.1599637269973755,0.051730602979660034
1721411580981640000,5.158639892578125,-0.022057533264160156,1.0942238569259644,-0.015942007303237915
1721411580994509000,5.171509033203125,0.020255088806152344,1.0356959104537964,-0.08379687368869781
1721411581007363800,5.18436376953125,0.12482166290283203,1.0250682830810547,-0.14409783482551575
1721411581020195300,5.1971953125,0.3441133499145508,0.9793614149093628,-0.09345655143260956
1721411581033092600,5.210092529296875,0.5750885009765625,0.8003485202789307,-0.05832509696483612
1721411581045938400,5.2229384765625,0.7740354537963867,0.6342271566390991,-0.08717088401317596
1721411581058784300,5.2357841796875,0.7217750549316406,0.46712958812713623,-0.16212880611419678
1721411581071646500,5.248646484375,0.46411991119384766,0.39668703079223633,-0.3011682629585266
1721411581084493800,5.261493896484375,0.18770599365234375,0.3344535827636719,-0.44060608744621277
1721411581097365500,5.274365478515625,0.13606739044189453,0.23404216766357422,-0.48143723607063293
1721411581110211800,5.2872119140625,0.1599445343017578,0.15262532234191895,-0.3950303792953491
1721411581123082800,5.300082763671875,0.3543233871459961,0.18465638160705566,-0.2222050130367279
1721411581135938000,5.31293798828125,0.49542808532714844,0.22275471687316895,-0.12159410119056702
1721411581148798200,5.325798095703125,0.7566461563110352,0.004712581634521484,-0.030517593026161194
1721411581161656000,5.338656005859375,1.0321998596191406,-0.2574695348739624,0.0555330365896225
1721411581174515700,5.351515625,1.102752685546875,-0.4503821134567261,-0.004143252968788147
1721411581187373300,5.364373291015625,0.9308853149414062,-0.6182901859283447,-0.11569955945014954
1721411581200233000,5.37723291015625,0.6728076934814453,-0.723457932472229,-0.28230640292167664
1721411581213086000,5.3900859375,0.3369607925415039,-0.7546643018722534,-0.3633961081504822
1721411581225955600,5.40295556640625,0.12875652313232422,-0.7057632207870483,-0.27482372522354126
1721411581238822100,5.415822265625,0.027727127075195312,-0.5193444490432739,-0.11596721410751343
1721411581251677200,5.42867724609375,0.2093057632446289,-0.6585391759872437,0.08637887239456177
1721411581264538000,5.4415380859375,0.29570484161376953,-0.7603194713592529,0.2885759770870209
1721411581277395500,5.4543955078125,0.55511474609375,-0.7977191209793091,0.4749489724636078
1721411581290254800,5.4672548828125,0.7069692611694336,-0.863877534866333,0.49222585558891296
1721411581303114000,5.480114013671875,0.5191707611083984,-1.0240110158920288,0.47537264227867126
1721411581315974000,5.492973876953125,0.2441730499267578,-1.1016629934310913,0.2950281500816345
1721411581328830200,5.505830322265625,-0.12226390838623047,-1.2285192012786865,0.1101946160197258
1721411581341691000,5.51869091796875,-0.556849479675293,-1.3255481719970703,0.03772921860218048
1721411581354547500,5.53154736328125,-0.8069620132446289,-1.2771403789520264,-0.019533395767211914
1721411581367407000,5.544406982421875,-0.8378448486328125,-1.3054566383361816,-0.02971559762954712
1721411581380268500,5.5572685546875,-0.6827459335327148,-1.3501365184783936,-0.026070237159729004
1721411581393124900,5.570124755859375,-0.567626953125,-1.3255345821380615,-0.001554936170578003
1721411581405984800,5.58298486328125,-0.5850467681884766,-1.0044795274734497,0.12839585542678833
1721411581418834200,5.595834228515625,-0.6530952453613281,-0.5960097312927246,0.27771279215812683
1721411581431703000,5.608703125,-0.5745983123779297,-0.17083430290222168,0.4671483337879181
1721411581444555800,5.6215556640625,-0.4442453384399414,0.07709360122680664,0.6145358681678772
1721411581457408500,5.634408447265625,-0.28998661041259766,0.2301466464996338,0.7430970072746277
1721411581470280000,5.647280029296875,-0.13136768341064453,0.3385918140411377,0.7837405800819397
1721411581483120000,5.6601201171875,-0.09123611450195312,0.37314486503601074,0.8133571743965149
1721411581495982300,5.672982421875,-0.07786750793457031,0.37857937812805176,0.7652620673179626
1721411581508859600,5.685859619140625,-0.04409217834472656,0.40343213081359863,0.6629367470741272
1721411581521709600,5.69870947265625,0.06260299682617188,0.3470761775970459,0.539767861366272
1721411581534562000,5.71156201171875,0.08011341094970703,0.277113676071167,0.37523841857910156
1721411581547426600,5.724426513671875,-0.058302879333496094,0.2618119716644287,0.2692299485206604
1721411581560270600,5.7372705078125,-0.27328968048095703,0.3036620616912842,0.22904807329177856
1721411581573132500,5.750132568359375,-0.48241710662841797,0.3906137943267822,0.17347395420074463
1721411581585991400,5.762991455078125,-0.5393171310424805,0.35064125061035156,0.1423315703868866
1721411581598842600,5.775842529296875,-0.5862874984741211,0.33542633056640625,0.12791302800178528
1721411581611711500,5.78871142578125,-0.6058998107910156,0.44527173042297363,0.059889137744903564
1721411581624567000,5.801567138671875,-0.7015504837036133,0.45421624183654785,0.04815760254859924
1721411581637415700,5.814415771484375,-0.7391891479492188,0.4991757869720459,-0.0043877363204956055
1721411581650277000,5.827277099609375,-0.6288156509399414,0.49073171615600586,-0.020845651626586914
1721411581663146000,5.84014599609375,-0.49520015716552734,0.5518844127655029,0.00748153030872345
1721411581676002000,5.853001953125,-0.3672933578491211,0.5271885395050049,-0.032459959387779236
1721411581688851700,5.865851806640625,-0.3589468002319336,0.5195913314819336,-0.06887859106063843
1721411581701714400,5.87871435546875,-0.4302968978881836,0.43277502059936523,-0.11008156836032867
1721411581714594600,5.891594482421875,-0.42003822326660156,0.35112690925598145,-0.09521466493606567
1721411581727446500,5.904446533203125,-0.38095855712890625,0.34212779998779297,-0.029037192463874817
1721411581740291800,5.917291748046875,-0.21315956115722656,0.3278813362121582,0.09713757038116455
1721411581753170000,5.930169921875,0.04455375671386719,0.32987403869628906,0.2429591864347458
1721411581766022100,5.943022216796875,0.28282928466796875,0.269439697265625,0.307687908411026
1721411581778882600,5.955882568359375,0.3872823715209961,0.18095183372497559,0.3866482973098755
1721411581791744300,5.968744140625,0.3714485168457031,0.1338181495666504,0.39229971170425415
1721411581804601300,5.981601318359375,0.3891115188598633,0.0726165771484375,0.4476136863231659
1721411581817461200,5.994461181640625,0.44550228118896484,0.04545426368713379,0.4530152976512909
1721411581830319000,6.007319091796875,0.4320068359375,0.0614473819732666,0.4030633568763733
1721411581843177000,6.020177001953125,0.4391946792602539,0.055753469467163086,0.3210155963897705
1721411581856036900,6.033036865234375,0.38968849182128906,0.10599660873413086,0.3363243341445923
1721411581868895500,6.0458955078125,0.37421417236328125,0.23644089698791504,0.3952430784702301
1721411581881753300,6.05875341796875,0.2563209533691406,0.29198336601257324,0.4376909136772156
1721411581894613000,6.071613037109375,0.23060226440429688,0.23348784446716309,0.4726623594760895
1721411581907468500,6.084468505859375,0.08623027801513672,0.23083758354187012,0.4564628005027771
1721411581920329700,6.097329833984375,-0.039742469787597656,0.19312262535095215,0.5511661767959595
1721411581933187800,6.110187744140625,-0.12928390502929688,0.1759650707244873,0.6452579498291016
1721411581946034000,6.123033935546875,-0.08959197998046875,0.0023212432861328125,0.6477723717689514
1721411581958896000,6.135896240234375,-0.036955833435058594,-0.17493629455566406,0.5020732879638672
1721411581971754200,6.148754150390625,-0.09592247009277344,-0.30754971504211426,0.26069265604019165
1721411581984621300,6.161621337890625,-0.04791736602783203,-0.4247840642929077,0.05657631903886795
1721411581997469700,6.1744697265625,0.012051582336425781,-0.5403256416320801,0.028920993208885193
1721411582010345200,6.18734521484375,0.20769309997558594,-0.5997382402420044,-0.04696206748485565
1721411582023200300,6.2002001953125,0.5123090744018555,-0.759006142616272,-0.11969026178121567
1721411582036043800,6.213043701171875,0.7633943557739258,-0.7637672424316406,-0.21451435983181
1721411582048890400,6.225890380859375,0.8109064102172852,-0.8389139175415039,-0.38936153054237366
1721411582061762600,6.238762451171875,0.5451440811157227,-0.8662387132644653,-0.6270004510879517
1721411582074619100,6.251619140625,0.20655345916748047,-0.9857103824615479,-0.8497706055641174
1721411582087477000,6.26447705078125,-0.13126850128173828,-0.911307692527771,-0.9447908401489258
1721411582100316000,6.27731591796875,-0.38191795349121094,-0.7732715606689453,-0.8988619446754456
1721411582113190400,6.2901904296875,-0.4511585235595703,-0.5903016328811646,-0.6695038676261902
1721411582126055000,6.303054931640625,-0.45333194732666016,-0.44817233085632324,-0.4835180342197418
1721411582138913800,6.315913818359375,-0.3587312698364258,-0.4137892723083496,-0.31171149015426636
1721411582151772200,6.328772216796875,-0.2662191390991211,-0.3344634771347046,-0.1652223765850067
1721411582164631000,6.341631103515625,-0.3042593002319336,-0.26906442642211914,-0.09367509186267853
1721411582177490000,6.354489990234375,-0.4658041000366211,-0.12853574752807617,0.013049513101577759
1721411582190339800,6.36733984375,-0.6580410003662109,-0.024833202362060547,-0.007964828982949257
1721411582203210200,6.380210205078125,-0.617950439453125,-0.014732122421264648,-0.10782027244567871
1721411582216065300,6.393065185546875,-0.4402961730957031,-0.1880350112915039,-0.32243484258651733
1721411582228924400,6.40592431640625,-0.2161722183227539,-0.5078973770141602,-0.4350319802761078
1721411582241783000,6.418782958984375,-0.0939931869506836,-0.6071345806121826,-0.5552359819412231
1721411582254641700,6.4316416015625,-0.004694938659667969,-0.6712973117828369,-0.5964978933334351
1721411582267498800,6.444498779296875,-0.032784461975097656,-0.6007106304168701,-0.5416297316551208
1721411582280359200,6.457359130859375,0.05997180938720703,-0.33316004276275635,-0.4447452127933502
1721411582293215200,6.47021533203125,-0.08209419250488281,-0.09727287292480469,-0.34151047468185425
1721411582306094600,6.483094482421875,-0.2752189636230469,0.19784080982208252,-0.2314811646938324
1721411582318947800,6.49594775390625,-0.2861747741699219,0.5212750434875488,-0.048709869384765625
1721411582331809000,6.50880908203125,-0.26693153381347656,0.6421905755996704,0.11993782222270966
1721411582344665300,6.521665283203125,-0.25675201416015625,0.7177547216415405,0.23168696463108063
1721411582357522400,6.5345224609375,-0.1273212432861328,0.8012282848358154,0.2955331802368164
1721411582370367200,6.5473671875,-0.04980659484863281,0.7434313297271729,0.28198084235191345
1721411582383245000,6.5602451171875,-0.006573677062988281,0.5312317609786987,0.24098438024520874
1721411582396100000,6.57310009765625,-0.02504253387451172,0.3101072311401367,0.15988773107528687
1721411582408960500,6.58596044921875,-0.19142913818359375,0.1932210922241211,0.05438902974128723
1721411582421815800,6.59881591796875,-0.35738086700439453,0.14076828956604004,-0.13880765438079834
1721411582434679800,6.6116796875,-0.46941661834716797,0.09380197525024414,-0.3089030981063843
1721411582447534000,6.6245341796875,-0.49688053131103516,0.007970213890075684,-0.3420456051826477
1721411582460394000,6.63739404296875,-0.3942756652832031,0.12691140174865723,-0.3294307291507721
1721411582473239800,6.65023974609375,-0.35973644256591797,0.20500719547271729,-0.24280989170074463
1721411582486119200,6.663119140625,-0.23952770233154297,0.2594780921936035,-0.03411421179771423
1721411582498968800,6.67596875,-0.19190120697021484,0.4642723798751831,0.11907950043678284
1721411582511826700,6.68882666015625,-0.1343393325805664,0.6668932437896729,0.2632468342781067
1721411582524686800,6.701686767578125,-0.08334636688232422,0.7808362245559692,0.3616495728492737
1721411582537546500,6.71454638671875,0.06276893615722656,0.9416036605834961,0.43118101358413696
1721411582550370000,6.7273701171875,0.14832305908203125,1.136178970336914,0.48764023184776306
1721411582563252700,6.740252685546875,0.22053146362304688,1.2391581535339355,0.44009730219841003
1721411582576109300,6.753109375,0.24596214294433594,1.2011908292770386,0.31458780169487
1721411582588967200,6.76596728515625,0.2110586166381836,1.0251400470733643,0.14944352209568024
1721411582601825500,6.778825439453125,0.2139453887939453,0.9462347030639648,0.07266451418399811
1721411582614682600,6.7916826171875,0.16979694366455078,0.9427511692047119,-0.10532909631729126
1721411582627545000,6.804545166015625,0.14646339416503906,0.8428586721420288,-0.2719729542732239
1721411582640403200,6.8174033203125,0.19011497497558594,0.7589294910430908,-0.4708651304244995
1721411582653260500,6.830260498046875,0.21915054321289062,0.6070413589477539,-0.6079307794570923
1721411582666119700,6.84311962890625,0.2995109558105469,0.4278295040130615,-0.6457269191741943
1721411582678976500,6.8559765625,0.3925819396972656,0.34602880477905273,-0.5171067714691162
1721411582691849700,6.868849609375,0.5773897171020508,0.24070262908935547,-0.4818871021270752
1721411582704708600,6.88170849609375,0.8161983489990234,0.08158135414123535,-0.4435851275920868
1721411582717571000,6.894571044921875,0.9653615951538086,0.0073473453521728516,-0.4477097988128662
1721411582730425900,6.90742578125,0.9727106094360352,-0.2079486846923828,-0.41349607706069946
1721411582743283200,6.920283203125,0.9224224090576172,-0.3544689416885376,-0.348820298910141
1721411582756127500,6.93312744140625,0.8197689056396484,-0.5967733860015869,-0.27375295758247375
1721411582768985300,6.9459853515625,0.7636232376098633,-0.9594123363494873,-0.18994569778442383
1721411582781846800,6.9588466796875,0.8000402450561523,-1.1548004150390625,-0.17922784388065338
1721411582794706400,6.97170654296875,0.6667013168334961,-1.291122555732727,-0.12980885803699493
1721411582807564300,6.984564208984375,0.5410013198852539,-1.3323777914047241,-0.10270017385482788
1721411582820425200,6.99742529296875,0.5130367279052734,-1.4322023391723633,-0.07266217470169067
1721411582833282300,7.0102822265625,0.6399984359741211,-1.5220484733581543,-0.06455425918102264
1721411582846145000,7.02314501953125,0.7021150588989258,-1.7422178983688354,-0.1250184178352356
1721411582859039200,7.036039306640625,0.5479211807250977,-1.9183058738708496,-0.3233095407485962
1721411582871869000,7.048868896484375,0.14800643920898438,-1.9305223226547241,-0.5618115663528442
1721411582884727300,7.061727294921875,-0.41373729705810547,-1.6882920265197754,-0.7467127442359924
1721411582897564000,7.07456396484375,-0.7984590530395508,-1.3428094387054443,-0.7143661975860596
1721411582910437400,7.087437255859375,-1.2701902389526367,-0.9233442544937134,-0.4937784969806671
1721411582923288800,7.100288818359375,-1.4005393981933594,-0.4158341884613037,-0.06612128019332886
1721411582936153600,7.113153564453125,-1.3977432250976562,-0.016246795654296875,0.3585420846939087
1721411582949011000,7.126010986328125,-1.0352392196655273,0.3114144802093506,0.7962144613265991
1721411582961867300,7.1388671875,-0.6220188140869141,0.46359753608703613,1.1175568103790283
1721411582974728400,7.151728515625,-0.31961822509765625,0.44570469856262207,1.2554106712341309
1721411582987590400,7.16459033203125,-0.05653953552246094,0.27843189239501953,1.3334581851959229
1721411583000456200,7.177456298828125,0.10634040832519531,0.09121298789978027,1.3754053115844727
1721411583013317400,7.1903173828125,0.09960651397705078,-0.11328423023223877,1.2440659999847412
1721411583026155800,7.20315576171875,-0.0743865966796875,-0.33156323432922363,1.013533353805542
1721411583039021800,7.216021728515625,-0.3698606491088867,-0.3835347890853882,0.6731889247894287
1721411583051881500,7.228881591796875,-0.7012414932250977,-0.4038652181625366,0.3772498369216919
1721411583064738600,7.241738525390625,-0.9985160827636719,-0.3310447931289673,0.19423907995224
1721411583077598200,7.25459814453125,-1.2445545196533203,-0.17328834533691406,0.1257704496383667
1721411583090456600,7.26745654296875,-1.2869300842285156,0.04960775375366211,0.30946460366249084
1721411583103295700,7.280295654296875,-1.1873540878295898,0.29614579677581787,0.5360095500946045
1721411583116176600,7.2931767578125,-1.0610837936401367,0.555564284324646,0.7511508464813232
1721411583129032700,7.30603271484375,-0.8025989532470703,0.7472929954528809,0.8218851089477539
1721411583141891300,7.318891357421875,-0.49272632598876953,0.7545379400253296,0.8388107419013977
1721411583154750500,7.33175048828125,-0.21362686157226562,0.6427104473114014,0.7707604765892029
1721411583167608600,7.344608642578125,0.05952739715576172,0.581220269203186,0.6686200499534607
1721411583180470800,7.357470703125,0.17921924591064453,0.5808910131454468,0.5396891236305237
1721411583193342500,7.370342529296875,0.21124649047851562,0.5221235752105713,0.3877747356891632
1721411583206189800,7.38318994140625,0.2825632095336914,0.4660329818725586,0.2793886065483093
1721411583219051800,7.3960517578125,0.2950105667114258,0.4047415256500244,0.16905996203422546
1721411583231902200,7.408902099609375,0.27567195892333984,0.5230016708374023,0.12523305416107178
1721411583244760300,7.42176025390625,0.06185626983642578,0.7373772859573364,-0.004725396633148193
1721411583257621000,7.43462109375,-0.18683242797851562,0.7946693897247314,0.04063509404659271
1721411583270478000,7.44747802734375,-0.2031850814819336,1.0395208597183228,0.13051442801952362
1721411583283337200,7.460337158203125,-0.2465353012084961,1.1221849918365479,0.1678215116262436
1721411583296196400,7.4731962890625,-0.20810794830322266,1.0040209293365479,0.26100584864616394
1721411583309050000,7.486050048828125,-0.16241073608398438,0.9530789852142334,0.24682238698005676
1721411583321913600,7.49891357421875,-0.11264610290527344,0.8447287082672119,0.22973547875881195
1721411583334789000,7.5117890625,0.031561851501464844,0.6246566772460938,0.2619548439979553
1721411583347643600,7.5246435546875,0.14225006103515625,0.42348432540893555,0.253216415643692
1721411583360503000,7.5375029296875,0.22949504852294922,0.2701072692871094,0.1880412995815277
1721411583373334500,7.55033447265625,0.2748699188232422,0.17211031913757324,0.12195554375648499
1721411583386209500,7.56320947265625,0.2775754928588867,0.149583101272583,0.12068912386894226
1721411583399066000,7.576066162109375,0.23891544342041016,0.12054717540740967,0.1636943817138672
1721411583411924200,7.58892431640625,0.264190673828125,-0.06164824962615967,0.2633940279483795
1721411583424783000,7.601783203125,0.4002418518066406,-0.2789583206176758,0.18923957645893097
1721411583437642800,7.614642822265625,0.47006893157958984,-0.2369624376296997,0.06051425635814667
1721411583450500400,7.627500244140625,0.5603446960449219,-0.21923601627349854,-0.1142045259475708
1721411583463360300,7.6403603515625,0.46425437927246094,-0.09479272365570068,-0.22989563643932343
1721411583476237600,7.653237548828125,0.39856624603271484,0.013242244720458984,-0.3103310465812683
1721411583489076000,7.666075927734375,0.21654415130615234,0.11307311058044434,-0.3565031886100769
1721411583501945600,7.678945556640625,-0.07528305053710938,0.2754793167114258,-0.4032069444656372
1721411583514811600,7.691811767578125,-0.22814083099365234,0.334057092666626,-0.5166448950767517
1721411583527666700,7.704666748046875,-0.326934814453125,0.1579740047454834,-0.4758734703063965
1721411583540526000,7.717526123046875,-0.24005603790283203,-0.1762537956237793,-0.2973845899105072
1721411583553366500,7.730366455078125,0.06774711608886719,-0.4274876117706299,-0.17903736233711243
1721411583566227700,7.743227783203125,0.39252758026123047,-0.6233757734298706,-0.12027041614055634
1721411583579086300,7.75608642578125,0.7515897750854492,-0.8106374740600586,-0.13930153846740723
1721411583591934000,7.768933837890625,0.9994297027587891,-1.0206347703933716,-0.2676958739757538
1721411583604795100,7.781795166015625,0.9945163726806641,-1.1826859712600708,-0.4330715537071228
1721411583617664300,7.794664306640625,0.8116331100463867,-1.3787517547607422,-0.5980590581893921
1721411583630522600,7.807522705078125,0.7367820739746094,-1.4313621520996094,-0.6456253528594971
1721411583643380000,7.8203798828125,0.5857124328613281,-1.3865461349487305,-0.6287449598312378
1721411583656236300,7.833236328125,0.27627086639404297,-1.066256046295166,-0.5526298880577087
1721411583669097500,7.846097412109375,-0.17743682861328125,-0.6748567819595337,-0.39459866285324097
1721411583681957000,7.85895703125,-0.5198240280151367,-0.17971813678741455,-0.14464516937732697
1721411583694811600,7.871811767578125,-0.6267032623291016,0.17542648315429688,0.1105118989944458
1721411583707692500,7.884692626953125,-0.5762844085693359,0.3899087905883789,0.31610751152038574
1721411583720546300,7.89754638671875,-0.5369586944580078,0.37939453125,0.4656946659088135
1721411583733406500,7.910406494140625,-0.44487571716308594,0.2169632911682129,0.5357519388198853
1721411583746239500,7.923239501953125,-0.45360279083251953,-0.0992729663848877,0.4383423924446106
1721411583759128800,7.93612890625,-0.4190635681152344,-0.44002532958984375,0.25790727138519287
1721411583771980300,7.948980224609375,-0.2495565414428711,-0.7392381429672241,0.09852641820907593
1721411583784837400,7.96183740234375,-0.14794635772705078,-0.9696623086929321,-0.06849021464586258
1721411583797699600,7.974699462890625,-0.1406698226928711,-1.2000300884246826,-0.07838746160268784
1721411583810548000,7.9875478515625,-0.12299823760986328,-1.210316777229309,-0.02913336455821991
1721411583823432400,8.000432373046875,-0.21231937408447266,-0.9790406227111816,-0.07075950503349304
1721411583836272000,8.013272216796874,-0.22560596466064453,-0.8287394046783447,-0.04270244389772415
1721411583849132000,8.026132080078124,-0.2906980514526367,-0.5694644451141357,0.0640551745891571
1721411583861976300,8.038976318359374,-0.42563533782958984,-0.22058236598968506,0.1927640736103058
1721411583874839600,8.051839599609375,-0.5641002655029297,0.12665390968322754,0.2795732021331787
1721411583887700500,8.064700439453125,-0.6578273773193359,0.3006758689880371,0.3489688038825989
1721411583900555000,8.077554931640625,-0.7710971832275391,0.4908229112625122,0.36004430055618286
1721411583913415200,8.090415283203125,-0.7799825668334961,0.6200122833251953,0.2939940094947815
1721411583926273800,8.103273681640625,-0.6737794876098633,0.552863597869873,0.19958439469337463
1721411583939132700,8.116132568359374,-0.5273313522338867,0.45444202423095703,0.08517175167798996
1721411583952012500,8.129012451171874,-0.4153423309326172,0.2673022747039795,-0.0511283278465271
1721411583964858000,8.141858154296875,-0.4282188415527344,0.08591866493225098,-0.11580449342727661
1721411583977724000,8.154723876953126,-0.4030313491821289,0.0037087202072143555,-0.15825079381465912
1721411583990564000,8.167564208984375,-0.35794544219970703,-0.06676602363586426,-0.21777480840682983
1721411584003426000,8.180426025390625,-0.2296142578125,-0.21998393535614014,-0.2481120079755783
1721411584016283600,8.19328369140625,-0.124603271484375,-0.1778339147567749,-0.26447534561157227
1721411584029143800,8.206143798828125,-0.3448352813720703,0.09382247924804688,-0.24739032983779907
1721411584041998000,8.218998046875,-0.625523567199707,0.3435016870498657,-0.25415879487991333
1721411584054856400,8.2318564453125,-0.7777595520019531,0.5206559896469116,-0.13690389692783356
1721411584067708200,8.244708251953124,-0.7068395614624023,0.7537429332733154,0.03724415600299835
1721411584080579800,8.257579833984375,-0.4217815399169922,0.9720824956893921,0.18314629793167114
1721411584093437200,8.270437255859376,-0.2840232849121094,1.060498833656311,0.26666033267974854
1721411584106296300,8.28329638671875,-0.1574115753173828,1.2177170515060425,0.19272905588150024
1721411584119150600,8.296150634765626,-0.15477275848388672,1.2240530252456665,0.14070391654968262
1721411584132014300,8.309014404296875,-0.06656932830810547,1.1369950771331787,0.1300278902053833
1721411584144882000,8.3218818359375,0.17360401153564453,1.0722992420196533,0.21871277689933777
1721411584157729500,8.3347294921875,0.6812458038330078,0.9613913297653198,0.28841233253479004
1721411584170586600,8.347586669921874,0.9671239852905273,0.6076785326004028,0.2321719229221344
1721411584183448300,8.3604482421875,1.0244026184082031,0.36694228649139404,0.10749709606170654
1721411584196302600,8.373302490234375,0.8870725631713867,0.17255520820617676,-0.013292714953422546
1721411584209164800,8.386164794921875,0.8594436645507812,-0.04197347164154053,-0.19277285039424896
1721411584222035700,8.39903564453125,0.9234457015991211,-0.3338806629180908,-0.3578951954841614
1721411584234899700,8.411899658203126,1.0818719863891602,-0.5186647176742554,-0.5641156435012817
1721411584247768600,8.4247685546875,1.2171220779418945,-0.5586518049240112,-0.6957535147666931
1721411584260608300,8.437608154296875,1.0664472579956055,-0.43326711654663086,-0.8078517913818359
1721411584273469000,8.450468994140625,1.012369155883789,-0.39423978328704834,-0.8862156867980957
1721411584286329000,8.4633291015625,0.873936653137207,-0.39757752418518066,-0.6800333857536316
1721411584299187000,8.47618701171875,0.8683996200561523,-0.24486267566680908,-0.4867515563964844
1721411584312049000,8.489048828125,0.8754053115844727,-0.24059224128723145,-0.13767866790294647
1721411584324908000,8.501907958984376,0.8951568603515625,-0.11529660224914551,0.03813101351261139
1721411584337765000,8.51476513671875,0.8382320404052734,-0.04459214210510254,0.1276223063468933
1721411584350609400,8.527609375,0.6999645233154297,-0.2509695291519165,0.0925196036696434
1721411584363470800,8.540470947265625,0.5580368041992188,-0.5341212749481201,0.0098336860537529
1721411584376319700,8.55331982421875,0.3530149459838867,-0.8810960054397583,-0.08467873930931091
1721411584389191200,8.566191162109375,0.14705657958984375,-1.2066543102264404,-0.16920442879199982
1721411584402036700,8.57903662109375,-0.1016397476196289,-1.4155168533325195,-0.23157277703285217
1721411584414907000,8.591906982421875,-0.3671836853027344,-1.6023986339569092,-0.21168944239616394
1721411584427753200,8.604753173828126,-0.5565357208251953,-1.4493513107299805,-0.14536717534065247
1721411584440626400,8.61762646484375,-0.6669836044311523,-1.313180685043335,-0.0924587994813919
1721411584453494800,8.630494873046874,-0.7058219909667969,-1.1527003049850464,0.07578779011964798
1721411584466349800,8.643349853515625,-0.8036355972290039,-0.7902439832687378,0.17776334285736084
1721411584479196700,8.65619677734375,-0.8443994522094727,-0.5722342729568481,0.2968566417694092
1721411584492059600,8.6690595703125,-0.8255739212036133,-0.3359426259994507,0.35165196657180786
1721411584504917000,8.6819169921875,-0.7807950973510742,-0.1689990758895874,0.405285507440567
1721411584517787600,8.69478759765625,-0.6536188125610352,-0.036461472511291504,0.44983863830566406
1721411584530632200,8.707632080078126,-0.4150581359863281,-0.01910579204559326,0.4881400763988495
1721411584543496000,8.720495849609375,-0.10496139526367188,-0.13852107524871826,0.5375227928161621
1721411584556352800,8.733352783203125,0.07555770874023438,-0.1808105707168579,0.507636308670044
1721411584569212200,8.746212158203125,0.17254257202148438,-0.25673067569732666,0.497206449508667
1721411584582069200,8.7590693359375,0.20108604431152344,-0.3164534568786621,0.5539019107818604
1721411584594928000,8.77192822265625,-0.011130332946777344,-0.1702650785446167,0.5858726501464844
1721411584607787000,8.784787109375,-0.22154521942138672,0.08577454090118408,0.6095343232154846
1721411584620654800,8.79765478515625,-0.39418792724609375,0.19914090633392334,0.577704906463623
1721411584633502200,8.810502197265626,-0.5185623168945312,0.20118558406829834,0.521385133266449
1721411584646360600,8.823360595703125,-0.5451698303222656,0.34636878967285156,0.4680143892765045
1721411584659225000,8.83622509765625,-0.5923233032226562,0.3755791187286377,0.5041005611419678
1721411584672082400,8.84908251953125,-0.647639274597168,0.4632052183151245,0.45246443152427673
1721411584684939500,8.861939453125,-0.5705537796020508,0.46298789978027344,0.3743155896663666
1721411584697789400,8.87478955078125,-0.30797576904296875,0.3362431526184082,0.3862897455692291
1721411584710659600,8.88765966796875,-0.13609695434570312,0.23621976375579834,0.3712413012981415
1721411584723511800,8.90051171875,0.06360244750976562,0.2687722444534302,0.43427199125289917
1721411584736375000,8.913375,0.22623252868652344,0.29976773262023926,0.45868930220603943
1721411584749235700,8.926235595703124,0.24712467193603516,0.33403289318084717,0.4803744852542877
1721411584762091500,8.939091552734375,0.15571022033691406,0.39915430545806885,0.4289777874946594
1721411584774964500,8.951964599609376,0.012681961059570312,0.5214632749557495,0.3514583110809326
1721411584787824400,8.964824462890626,-0.1387643814086914,0.6896001100540161,0.3045313358306885
1721411584800669400,8.97766943359375,-0.274871826171875,0.7893182039260864,0.2910708785057068
1721411584813526300,8.9905263671875,-0.3438568115234375,0.9909542798995972,0.26051783561706543
1721411584826401000,9.003401123046874,-0.35097408294677734,1.1775366067886353,0.22685009241104126
1721411584839258600,9.016258544921875,-0.42980480194091797,1.3870630264282227,0.18294329941272736
1721411584852115200,9.029115234375,-0.45073890686035156,1.5262854099273682,0.11808016896247864
1721411584864963300,9.04196337890625,-0.44220638275146484,1.471764087677002,-0.010723806917667389
1721411584877828600,9.05482861328125,-0.4240407943725586,1.439979910850525,-0.09387974441051483
1721411584890695400,9.0676953125,-0.4021720886230469,1.35830819606781,-0.16591781377792358
1721411584903543000,9.08054296875,-0.3951845169067383,1.3652480840682983,-0.13924559950828552
1721411584916407600,9.093407470703125,-0.25576114654541016,1.4462193250656128,-0.12583045661449432
1721411584929275400,9.106275390625,0.08011436462402344,1.2661492824554443,-0.11469393223524094
1721411584942126800,9.119126953125,0.506648063659668,0.9273093938827515,-0.14791613817214966
1721411584954987500,9.131987548828125,0.7661647796630859,0.5668437480926514,-0.18580305576324463
1721411584967833900,9.144833740234375,0.6867427825927734,0.30617570877075195,-0.28097429871559143
1721411584980707300,9.157707275390624,0.5236454010009766,-0.017003297805786133,-0.36725881695747375
1721411584993560800,9.170560791015625,0.44729137420654297,-0.20089232921600342,-0.40147465467453003
1721411585006409700,9.18340966796875,0.5577993392944336,-0.35797667503356934,-0.37889617681503296
1721411585019284500,9.196284423828125,0.7592124938964844,-0.3581368923187256,-0.2085220217704773
1721411585032139500,9.209139404296875,0.850550651550293,-0.2835845947265625,-0.034062787890434265
1721411585045001200,9.222001220703126,0.8159322738647461,-0.25844359397888184,0.081214040517807
1721411585057848300,9.234848388671875,0.7260341644287109,-0.32100117206573486,0.10035459697246552
1721411585070702000,9.2477021484375,0.5995254516601562,-0.5110906362533569,0.018717961385846138
1721411585083562800,9.260562744140625,0.5088958740234375,-0.8884758949279785,-0.08122742176055908
1721411585096420600,9.273420654296874,0.4417753219604492,-1.146260142326355,-0.16371780633926392
1721411585109279500,9.286279541015626,0.22950077056884766,-1.2630350589752197,-0.24599909782409668
1721411585122138400,9.299138427734375,0.09570693969726562,-1.2329607009887695,-0.36809954047203064
1721411585134991400,9.311991455078125,0.017435073852539062,-1.2390868663787842,-0.5624711513519287
1721411585147857400,9.324857421875,0.04709339141845703,-1.4526273012161255,-0.7036918997764587
1721411585160728600,9.337728515625,0.1305828094482422,-1.4607963562011719,-0.8577912449836731
1721411585173592000,9.350592041015625,0.09299755096435547,-1.4925944805145264,-0.9944643974304199
1721411585186431700,9.363431640625,-0.13136768341064453,-1.445426106452942,-1.0403263568878174
1721411585199290600,9.37629052734375,-0.4029989242553711,-1.3442927598953247,-0.9877203106880188
1721411585212163300,9.389163330078125,-0.6181182861328125,-1.0958915948867798,-0.8118216395378113
1721411585225021000,9.40202099609375,-0.7064075469970703,-0.930606484413147,-0.5221785306930542
1721411585237870000,9.4148701171875,-0.7318201065063477,-0.6485460996627808,-0.14364352822303772
1721411585250741500,9.427741455078126,-0.6468515396118164,-0.32587432861328125,0.13236156105995178
1721411585263572700,9.44057275390625,-0.4733924865722656,-0.04974961280822754,0.18915441632270813
1721411585276462600,9.453462646484375,-0.14221858978271484,-0.08564209938049316,0.058907344937324524
1721411585289313500,9.4663134765625,0.06283187866210938,-0.27796125411987305,-0.1644887626171112
1721411585302167300,9.479167236328125,-0.07867622375488281,-0.36378777027130127,-0.44627106189727783
1721411585315033900,9.492033935546875,-0.2133312225341797,-0.5568909645080566,-0.7058660984039307
1721411585327910100,9.50491015625,-0.17694759368896484,-0.7481293678283691,-0.8875423073768616
1721411585340732200,9.517732177734375,-0.28478145599365234,-1.1127512454986572,-0.82548987865448
1721411585353608400,9.5306083984375,-0.17696285247802734,-1.1151002645492554,-0.6352020502090454
1721411585366463200,9.543463134765625,0.16090774536132812,-1.0641937255859375,-0.22179703414440155
1721411585379324700,9.55632470703125,0.3923168182373047,-0.6915676593780518,0.2133592963218689
1721411585392182300,9.569182373046875,0.4865732192993164,-0.2577747106552124,0.49898162484169006
1721411585405043200,9.582043212890625,0.3283834457397461,-0.0699615478515625,0.7185174226760864
1721411585417891000,9.59489111328125,-0.08887767791748047,0.17678427696228027,0.7273147702217102
1721411585430763500,9.607763427734374,-0.3994455337524414,0.43061792850494385,0.780184268951416
1721411585443626800,9.620626708984375,-0.6802158355712891,0.6670019626617432,0.7658743858337402
1721411585456480000,9.63347998046875,-1.0507793426513672,0.7121627330780029,0.7356104254722595
1721411585469338400,9.64633837890625,-1.3657960891723633,0.6652634143829346,0.6740120649337769
1721411585482184000,9.659183837890625,-1.584120273590088,0.5879719257354736,0.632865309715271
1721411585495059200,9.67205908203125,-1.4630231857299805,0.4896984100341797,0.5572304725646973
1721411585507901700,9.684901611328126,-1.1799392700195312,0.364734411239624,0.5923168659210205
1721411585520777700,9.69777783203125,-0.6970233917236328,0.369060754776001,0.6804352402687073
1721411585533622000,9.7106220703125,-0.28921985626220703,0.5304338932037354,0.6853806972503662
1721411585546475800,9.723475830078126,0.012646675109863281,0.6323301792144775,0.572960376739502
1721411585559327000,9.736326904296876,0.17790699005126953,0.6427539587020874,0.42194634675979614
1721411585572198100,9.7491982421875,0.10091304779052734,0.697374701499939,0.3209163546562195
1721411585585055500,9.762055419921875,0.0830850601196289,0.9101371765136719,0.24602121114730835
1721411585597914000,9.7749140625,0.037032127380371094,0.9692567586898804,0.07782407104969025
1721411585610769400,9.787769287109375,-0.012890815734863281,0.867212176322937,-0.07225481420755386
1721411585623630800,9.800630859375,-0.2512168884277344,0.9293661117553711,-0.3385770320892334
1721411585636489700,9.81348974609375,-0.5813236236572266,0.9942892789840698,-0.5974661111831665
1721411585649348600,9.8263486328125,-0.7720451354980469,1.0719273090362549,-0.7650259733200073
1721411585662211300,9.83921142578125,-0.9040613174438477,1.1483149528503418,-0.8146455883979797
1721411585675069000,9.85206884765625,-0.9653100967407227,1.1854922771453857,-0.8278167247772217
1721411585687928300,9.86492822265625,-0.993830680847168,1.237910509109497,-0.9072695970535278
1721411585700795100,9.877795166015625,-1.011953353881836,1.188831090927124,-0.9236067533493042
1721411585713653800,9.89065380859375,-1.0651464462280273,1.3926060199737549,-1.008435606956482
1721411585726512000,9.90351220703125,-1.0753660202026367,1.449882984161377,-1.0618072748184204
1721411585739370200,9.916370361328125,-0.769017219543457,1.4422938823699951,-1.1335504055023193
1721411585752218600,9.929218505859374,-0.4658842086791992,1.291224479675293,-1.2975988388061523
1721411585765098500,9.942098388671875,-0.05324745178222656,1.2023181915283203,-1.416905403137207
1721411585777954300,9.954954345703126,0.22714614868164062,1.0394325256347656,-1.481846570968628
1721411585790806800,9.967806884765626,0.5308856964111328,0.7224979400634766,-1.2709811925888062
1721411585803668200,9.980668212890626,0.9122676849365234,0.494748592376709,-1.081228256225586
1721411585816526000,9.993526123046875,1.2457008361816406,0.32660818099975586,-0.8713690042495728
1721411585829382000,10.0063818359375,1.5448875427246094,0.3326716423034668,-0.6768232583999634
1721411585842244000,10.019244140625,1.962824821472168,0.2655603885650635,-0.5782091021537781
1721411585855090200,10.032090087890625,2.111943244934082,0.2830824851989746,-0.4944777488708496
1721411585867964700,10.044964599609376,1.8275938034057617,0.2110135555267334,-0.528449535369873
1721411585880834000,10.057833984375,1.3180561065673828,0.160750150680542,-0.6297985315322876
1721411585893675800,10.07067578125,0.8584060668945312,0.027425050735473633,-0.6637678146362305
1721411585906538500,10.08353857421875,0.7065458297729492,-0.10604190826416016,-0.4560895264148712
1721411585919412500,10.09641259765625,0.9386301040649414,-0.06268429756164551,-0.17173129320144653
1721411585932252000,10.109251953125,1.295405387878418,0.09634041786193848,0.1523878574371338
1721411585945112000,10.122112060546876,1.800612449645996,0.2589395046234131,0.23032933473587036
1721411585957973000,10.134972900390625,2.2750864028930664,0.09937858581542969,0.27878057956695557
1721411585970831400,10.147831298828125,2.451766014099121,-0.07025718688964844,0.2775670886039734
1721411585983680800,10.1606806640625,2.3830623626708984,-0.10374045372009277,0.12258696556091309
1721411585996571400,10.1735712890625,2.115875244140625,-0.37726712226867676,0.01998370885848999
1721411586009390800,10.186390869140626,1.798567771911621,-0.6356586217880249,0.05166119337081909
1721411586022256600,10.199256591796875,1.2005271911621094,-0.8113939762115479,0.12159609794616699
1721411586035113200,10.21211328125,0.6388397216796875,-0.6941165924072266,0.1894972324371338
1721411586047955200,10.224955078125,0.07969951629638672,-0.7265095710754395,0.19864237308502197
1721411586060833000,10.2378330078125,-0.34230995178222656,-0.8103427886962891,0.266501247882843
1721411586073685200,10.250685302734375,-0.5570917129516602,-1.0839356184005737,0.18968701362609863
1721411586086547700,10.263547607421875,-0.9372997283935547,-1.372009515762329,0.08166611194610596
1721411586099406800,10.27640673828125,-1.3228845596313477,-1.5452173948287964,-0.13044041395187378
1721411586112266200,10.289266357421875,-1.7147936820983887,-1.805011510848999,-0.24650168418884277
1721411586125122800,10.302122802734376,-2.071031093597412,-1.853945255279541,-0.23705652356147766
1721411586137975800,10.314975830078126,-2.006556987762451,-1.9356989860534668,-0.2787236273288727
1721411586150838800,10.3278388671875,-1.7109284400939941,-2.0442514419555664,-0.2145128846168518
1721411586163699500,10.340699462890624,-1.3496780395507812,-2.0467529296875,-0.13088616728782654
1721411586176573700,10.35357373046875,-1.1673765182495117,-1.7697802782058716,-0.04965001344680786
1721411586189415200,10.366415283203125,-1.1499357223510742,-1.3366374969482422,0.029232263565063477
1721411586202271200,10.379271240234376,-1.0659294128417969,-1.0077276229858398,0.12634488940238953
1721411586215137000,10.392136962890625,-0.8903608322143555,-0.7667979001998901,0.13261297345161438
1721411586227999000,10.4049990234375,-0.6241836547851562,-0.6905219554901123,0.04975759983062744
1721411586240849400,10.417849365234375,-0.4391746520996094,-0.5597851276397705,-0.1538681983947754
1721411586253707800,10.430707763671874,-0.39829444885253906,-0.43120598793029785,-0.3517051041126251
1721411586266571300,10.4435712890625,-0.42575836181640625,-0.28840041160583496,-0.5808168053627014
1721411586279423500,10.456423583984375,-0.42404937744140625,-0.3703049421310425,-0.7547445297241211
1721411586292308500,10.46930859375,-0.34964561462402344,-0.3681066036224365,-0.989372730255127
1721411586305160700,10.48216064453125,-0.21077823638916016,-0.43829846382141113,-1.1774951219558716
1721411586318016300,10.495016357421875,-0.10239315032958984,-0.43466174602508545,-1.2884626388549805
1721411586330878000,10.5078779296875,-0.10792064666748047,-0.24419045448303223,-1.4046225547790527
1721411586343738600,10.520738525390625,-0.11800575256347656,-0.12622857093811035,-1.3980605602264404
1721411586356592000,10.533592041015625,-0.0899362564086914,0.0735626220703125,-1.241965651512146
1721411586369455400,10.546455322265626,-0.012922286987304688,0.1977226734161377,-1.1777794361114502
1721411586382285000,10.55928515625,0.037384033203125,0.2200021743774414,-1.151924729347229
1721411586395144700,10.572144775390624,0.0025777816772460938,0.29935216903686523,-1.12095308303833
1721411586408006700,10.585006591796875,-0.017002105712890625,0.4186403751373291,-1.0860753059387207
1721411586420884200,10.59788427734375,-0.0833587646484375,0.494401216506958,-1.0282458066940308
1721411586433735000,10.61073486328125,-0.07289791107177734,0.6096024513244629,-0.9278377890586853
1721411586446593300,10.62359326171875,-0.0048084259033203125,0.7382850646972656,-0.7163735628128052
1721411586459454000,10.636453857421875,0.0922384262084961,0.799044132232666,-0.5677654147148132
1721411586472312600,10.6493125,0.12355422973632812,0.8148074150085449,-0.3995767831802368
1721411586485170200,10.662170166015626,0.06274223327636719,0.9326658248901367,-0.4160194396972656
1721411586498046000,10.6750458984375,-0.06882190704345703,0.8432538509368896,-0.4613818824291229
1721411586510902300,10.68790234375,-0.30060386657714844,0.7159817218780518,-0.4411689341068268
1721411586523759600,10.700759521484375,-0.44750499725341797,0.7506022453308105,-0.3070334494113922
1721411586536606500,10.7136064453125,-0.43509578704833984,0.7466874122619629,-0.17778253555297852
1721411586549465900,10.7264658203125,-0.34055233001708984,0.6908588409423828,-0.05647698789834976
1721411586562303000,10.739302978515624,-0.3543968200683594,0.7158119678497314,0.012844569981098175
1721411586575176700,10.7521767578125,-0.38251304626464844,0.728724479675293,0.15150704979896545
1721411586588042000,10.7650419921875,-0.4054536819458008,0.8313236236572266,0.29775816202163696
1721411586600901400,10.7779013671875,-0.4568052291870117,0.9593839645385742,0.346879780292511
1721411586613761800,10.79076171875,-0.38791465759277344,1.0334548950195312,0.34635302424430847
1721411586626618600,10.80361865234375,-0.35692596435546875,1.1877148151397705,0.278399258852005
1721411586639476700,10.816476806640624,-0.37259483337402344,1.1052708625793457,0.15452513098716736
1721411586652335900,10.8293359375,-0.37456703186035156,0.884960412979126,0.08374723792076111
1721411586665192200,10.842192138671875,-0.3395242691040039,0.7421338558197021,-0.11389296501874924
1721411586678049500,10.855049560546876,-0.10724544525146484,0.7967343330383301,-0.37098032236099243
1721411586690925600,10.867925537109375,0.5395669937133789,0.606407880783081,-0.6476526856422424
1721411586703780900,10.88078076171875,1.3169889450073242,0.10099387168884277,-0.8619678616523743
1721411586716639700,10.8936396484375,1.8274736404418945,-0.24790692329406738,-1.0189357995986938
1721411586729500000,10.9065,1.8306217193603516,-0.6240229606628418,-1.0149309635162354
1721411586742360600,10.919360595703125,1.5029973983764648,-0.36458253860473633,-0.9963212013244629
1721411586755220700,10.932220703125,1.2706184387207031,-0.39618659019470215,-1.0155688524246216
1721411586768061000,10.94506103515625,1.6090660095214844,-0.6770763397216797,-0.8252658843994141
1721411586780924400,10.95792431640625,2.321700096130371,-1.2159714698791504,-0.6352859139442444
1721411586793770500,10.9707705078125,2.8447837829589844,-1.4349907636642456,-0.5238039493560791
1721411586806632400,10.983632568359376,2.939438819885254,-1.6143345832824707,-0.6265566945075989
1721411586819491600,10.99649169921875,2.658994674682617,-1.8929451704025269,-0.9408859610557556
1721411586832353000,11.00935302734375,1.956939697265625,-2.252467155456543,-1.2967474460601807
1721411586845224000,11.022223876953126,1.1773223876953125,-2.4862008094787598,-1.620105266571045
1721411586858075600,11.03507568359375,0.6114273071289062,-2.4218382835388184,-1.7157275676727295
1721411586870936300,11.047936279296875,0.38439083099365234,-2.2960309982299805,-1.740823745727539
1721411586883792400,11.06079248046875,0.3781881332397461,-2.129087209701538,-1.5158414840698242
1721411586896652800,11.07365283203125,0.21950721740722656,-1.9111158847808838,-1.3902292251586914
1721411586909512700,11.0865126953125,0.08712100982666016,-1.6822714805603027,-1.0942440032958984
1721411586922371800,11.099371826171875,0.15288543701171875,-1.5477850437164307,-0.7898728847503662
1721411586935229000,11.11222900390625,0.2969369888305664,-1.4840562343597412,-0.5149913430213928
1721411586948078600,11.12507861328125,0.12754058837890625,-1.4406224489212036,-0.23754611611366272
1721411586960951000,11.137950927734375,-0.08754730224609375,-1.0939087867736816,-0.03546285629272461
1721411586973803800,11.1508037109375,-0.5171117782592773,-0.936363697052002,0.1420765519142151
1721411586986666000,11.163666015625,-0.7680902481079102,-0.9195969104766846,0.29495543241500854
1721411586999524600,11.176524658203125,-0.9795570373535156,-0.9013376235961914,0.29403817653656006
1721411587012383500,11.189383544921874,-1.0282039642333984,-0.9922616481781006,0.2147751748561859
1721411587025240600,11.202240478515625,-0.8592214584350586,-1.3220970630645752,0.16610392928123474
1721411587038092300,11.21509228515625,-0.6077880859375,-1.6464784145355225,0.07546140998601913
1721411587050962000,11.2279619140625,-0.4909534454345703,-1.8738292455673218,0.013616278767585754
1721411587063816200,11.240816162109375,-0.6037731170654297,-1.9237278699874878,-0.02536061406135559
1721411587076677400,11.253677490234375,-0.7928333282470703,-1.7450556755065918,0.01815018057823181
1721411587089535200,11.26653515625,-0.9700202941894531,-1.531754732131958,0.11979252099990845
1721411587102396000,11.27939599609375,-1.069366455078125,-1.3120136260986328,0.20269544422626495
1721411587115240200,11.292240234375,-1.0676069259643555,-1.0413845777511597,0.25609779357910156
1721411587128104000,11.30510400390625,-1.0295333862304688,-0.8262953758239746,0.31636255979537964
1721411587140975400,11.317975341796876,-0.9362096786499023,-0.7218730449676514,0.37622368335723877
1721411587153827800,11.330827880859376,-0.8123559951782227,-0.6315329074859619,0.460401713848114
1721411587166688300,11.343688232421876,-0.6286125183105469,-0.49903249740600586,0.55500727891922
1721411587179548000,11.3565478515625,-0.5411653518676758,-0.41773271560668945,0.694178581237793
1721411587192407000,11.369406982421875,-0.4088754653930664,-0.30504369735717773,0.7392300963401794
1721411587205263600,11.382263671875,-0.26583385467529297,-0.18077516555786133,0.7049302458763123
1721411587218114800,11.39511474609375,-0.2519502639770508,-0.1436307430267334,0.6838027834892273
1721411587230995000,11.407994873046874,-0.44716548919677734,0.1397249698638916,0.6087232232093811
1721411587243839000,11.4208388671875,-0.6115503311157227,0.45937299728393555,0.5038892030715942
1721411587256693200,11.433693359375,-0.751246452331543,0.6579642295837402,0.4472329616546631
1721411587269559600,11.4465595703125,-0.653498649597168,0.828343391418457,0.46844542026519775
1721411587282422000,11.459422119140624,-0.5421257019042969,0.9514124393463135,0.46746861934661865
1721411587295281400,11.472281494140624,-0.3836851119995117,0.9600050449371338,0.410099595785141
1721411587308140300,11.485140380859375,-0.30681610107421875,0.9527139663696289,0.35373353958129883
1721411587321012500,11.498012451171874,-0.2675905227661133,0.9025528430938721,0.26338279247283936
1721411587333851100,11.51085107421875,-0.33292293548583984,0.8350121974945068,0.18288066983222961
1721411587346729200,11.523729248046875,-0.4068307876586914,0.780120849609375,0.10983099043369293
1721411587359585500,11.53658544921875,-0.3717622756958008,0.7391488552093506,0.04054689407348633
1721411587372441600,11.549441650390625,-0.20198822021484375,0.6211457252502441,0.01469394564628601
1721411587385299500,11.562299560546874,0.06264400482177734,0.5393917560577393,0.12801796197891235
1721411587398145800,11.575145751953125,0.32732486724853516,0.5710771083831787,0.15370789170265198
1721411587411024400,11.5880244140625,0.50732421875,0.525123119354248,0.1679815649986267
1721411587423877000,11.600877197265625,0.5547275543212891,0.36394596099853516,0.1479346603155136
1721411587436738300,11.61373828125,0.5694503784179688,0.2377021312713623,0.10704796016216278
1721411587449599000,11.626598876953125,0.4801673889160156,0.1308879852294922,0.0905066654086113
1721411587462449700,11.63944970703125,0.5091943740844727,0.15180730819702148,0.1056678518652916
1721411587475296800,11.652296875,0.5573654174804688,0.12258195877075195,0.17411121726036072
1721411587488148500,11.6651484375,0.6627922058105469,0.03496503829956055,0.22986382246017456
1721411587501022200,11.678022216796874,0.7815637588500977,-0.11080098152160645,0.22817254066467285
1721411587513876200,11.690876220703124,0.9045438766479492,-0.34992098808288574,0.2033129632472992
1721411587526724600,11.703724609375,1.0989398956298828,-0.45726728439331055,0.19320841133594513
1721411587539598800,11.716598876953125,1.4331998825073242,-0.5842669010162354,0.12225981056690216
1721411587552456000,11.7294560546875,1.4646024703979492,-0.7866308689117432,-0.019198492169380188
1721411587565315000,11.742315185546875,1.3517217636108398,-0.9599858522415161,-0.19349011778831482
1721411587578163500,11.75516357421875,1.0345773696899414,-1.0096993446350098,-0.4433082342147827
1721411587591035100,11.76803515625,0.6531982421875,-1.0616545677185059,-0.602760374546051
1721411587603887900,11.780887939453125,0.33350086212158203,-1.1018873453140259,-0.679573655128479
1721411587616749800,11.793749755859375,0.28383636474609375,-0.9544113874435425,-0.4939544200897217
1721411587629617200,11.8066171875,0.46637439727783203,-0.7497962713241577,-0.2222874015569687
1721411587642465000,11.819465087890626,0.4770078659057617,-0.4964028596878052,-0.01264902949333191
1721411587655326700,11.83232666015625,0.3576374053955078,-0.30266427993774414,0.07647473365068436
1721411587668174000,11.845174072265625,0.09573078155517578,-0.1956195831298828,0.1380559206008911
1721411587681062400,11.8580625,-0.1807727813720703,-0.1166682243347168,0.17048496007919312
1721411587693900800,11.87090087890625,-0.3409538269042969,-0.08330965042114258,0.12563738226890564
1721411587706770400,11.8837705078125,-0.4040536880493164,-0.089019775390625,0.06753002107143402
1721411587719623400,11.89662353515625,-0.47421932220458984,-0.17731595039367676,-0.029019087553024292
1721411587732475400,11.909475341796876,-0.4712677001953125,-0.3044443130493164,-0.11682906001806259
1721411587745355500,11.92235546875,-0.34296512603759766,-0.42839694023132324,-0.17007875442504883
1721411587758198300,11.9351982421875,-0.18343353271484375,-0.5759572982788086,-0.1807486116886139
1721411587771047200,11.948047119140625,0.018952369689941406,-0.7171921730041504,-0.09784024953842163
1721411587783904800,11.96090478515625,0.15102767944335938,-0.7230641841888428,-0.04842022806406021
1721411587796774400,11.9737744140625,0.15751171112060547,-0.7485066652297974,-0.011812977492809296
1721411587809632500,11.986632568359376,0.0527496337890625,-0.6837146282196045,0.014216601848602295
1721411587822491100,11.9994912109375,-0.15064430236816406,-0.5055640935897827,0.07960350811481476
1721411587835350000,12.01235009765625,-0.38248252868652344,-0.23272204399108887,0.15527547895908356
1721411587848201000,12.025200927734375,-0.5696287155151367,-0.0523529052734375,0.2221231907606125
1721411587861071000,12.038071044921875,-0.619379997253418,0.06610441207885742,0.24649779498577118
1721411587873940000,12.05093994140625,-0.5594034194946289,0.05657172203063965,0.32066017389297485
1721411587886798000,12.063798095703126,-0.48695945739746094,-0.007997751235961914,0.39863550662994385
1721411587899657500,12.076657470703125,-0.4724006652832031,-0.08792972564697266,0.43882420659065247
1721411587912500500,12.08950048828125,-0.44849395751953125,-0.17685747146606445,0.4790783226490021
1721411587925374000,12.1023740234375,-0.4201698303222656,-0.2400510311126709,0.4233083128929138
1721411587938219300,12.11521923828125,-0.3355731964111328,-0.33176255226135254,0.3768633306026459
1721411587951079400,12.128079345703124,-0.2622842788696289,-0.3909459114074707,0.32011106610298157
1721411587963937300,12.140937255859376,-0.2980356216430664,-0.4930381774902344,0.20493966341018677
1721411587976797400,12.15379736328125,-0.3240671157836914,-0.566094160079956,0.1175975501537323
1721411587989658400,12.166658447265625,-0.3805971145629883,-0.5246050357818604,0.05693930387496948
1721411588002515200,12.17951513671875,-0.4464235305786133,-0.3601071834564209,0.10236875712871552
1721411588015373800,12.192373779296876,-0.5368680953979492,-0.13526248931884766,0.12397780269384384
1721411588028223700,12.2052236328125,-0.5156869888305664,-0.03621721267700195,0.1738709658384323
1721411588041093600,12.21809375,-0.4184236526489258,0.08276700973510742,0.1924411952495575
1721411588053948700,12.23094873046875,-0.34874439239501953,0.09140515327453613,0.1889740526676178
1721411588066810400,12.243810302734374,-0.4331016540527344,0.16297101974487305,0.15669479966163635
1721411588079671000,12.256671142578124,-0.5220680236816406,0.2417738437652588,0.13423067331314087
1721411588092526800,12.26952685546875,-0.5726261138916016,0.31477856636047363,0.09673191606998444
1721411588105384700,12.282384765625,-0.6080913543701172,0.2997920513153076,0.050948988646268845
1721411588118234600,12.295234619140626,-0.6090097427368164,0.3371920585632324,0.005667503923177719
1721411588131106600,12.3081064453125,-0.5439643859863281,0.47124767303466797,0.08730892837047577
1721411588143960800,12.3209609375,-0.4545021057128906,0.6469449996948242,0.0833960473537445
1721411588156821500,12.333821533203125,-0.4344491958618164,0.6869571208953857,0.017664536833763123
1721411588169681700,12.346681640625,-0.45783042907714844,0.7351946830749512,-0.13616451621055603
1721411588182524000,12.35952392578125,-0.4757709503173828,0.7051968574523926,-0.26673921942710876
1721411588195404500,12.372404541015625,-0.49459075927734375,0.6497359275817871,-0.2867784798145294
1721411588208260000,12.385260009765625,-0.4384002685546875,0.6676461696624756,-0.264181911945343
1721411588221119500,12.398119384765625,-0.3239164352416992,0.618046760559082,-0.24901875853538513
1721411588233988000,12.410988037109375,-0.13212966918945312,0.49201202392578125,-0.2333216816186905
1721411588246843000,12.4238427734375,-0.04670238494873047,0.46338701248168945,-0.2580782175064087
1721411588259707100,12.43670703125,0.028296470642089844,0.42435216903686523,-0.24763676524162292
1721411588272565800,12.449565673828126,0.18871593475341797,0.3142814636230469,-0.20100602507591248
1721411588285410000,12.46241015625,0.3632955551147461,0.0549626350402832,-0.10071608424186707
1721411588298276000,12.475276123046875,0.5424928665161133,-0.1518254280090332,0.1579645574092865
1721411588311142100,12.48814208984375,0.6921682357788086,-0.22733378410339355,0.3631167411804199
1721411588323986700,12.500986572265624,0.7907142639160156,-0.3119466304779053,0.612094521522522
1721411588336849200,12.51384912109375,0.8558988571166992,-0.3522089719772339,0.8770413398742676
1721411588349708000,12.5267080078125,0.8926849365234375,-0.43298768997192383,1.1010438203811646
1721411588362567200,12.539567138671876,0.9161300659179688,-0.5652017593383789,1.2745673656463623
1721411588375437000,12.55243701171875,0.8330821990966797,-0.614141583442688,1.41221284866333
1721411588388281000,12.565281005859376,0.8114833831787109,-0.6217262744903564,1.584302544593811
1721411588401157400,12.578157470703125,0.8835897445678711,-0.5916652679443359,1.643272042274475
1721411588414009300,12.59100927734375,1.0746469497680664,-0.6052701473236084,1.6432099342346191
1721411588426868200,12.6038681640625,1.1611709594726562,-0.7012462615966797,1.4199382066726685
1721411588439725600,12.6167255859375,1.0382881164550781,-0.829027533531189,1.0772374868392944
1721411588452589800,12.62958984375,0.6729698181152344,-0.8854681253433228,0.6786357164382935
1721411588465448000,12.642447998046874,0.2654895782470703,-0.8509145975112915,0.3220386803150177
1721411588478295600,12.655295654296875,-0.077301025390625,-0.800918459892273,0.11703990399837494
1721411588491166500,12.66816650390625,-0.29505157470703125,-0.6293489933013916,-0.016973838210105896
1721411588504005400,12.68100537109375,-0.4543447494506836,-0.4625117778778076,-0.030784666538238525
1721411588516870400,12.693870361328125,-0.5022726058959961,-0.3375973701477051,0.06488747894763947
1721411588529729300,12.706729248046875,-0.5702419281005859,-0.17460894584655762,0.181393563747406
1721411588542580700,12.719580810546875,-0.5796194076538086,-0.10685467720031738,0.31385016441345215
1721411588555447600,12.732447509765626,-0.5839252471923828,-0.1526165008544922,0.33525800704956055
1721411588568293000,12.745293212890624,-0.6810665130615234,-0.19259905815124512,0.3765512704849243
1721411588581168000,12.758168212890626,-0.46951961517333984,-0.21306419372558594,0.3710595667362213
1721411588594020900,12.771020751953126,-0.4028759002685547,-0.28499531745910645,0.2999116778373718
1721411588606883800,12.7838837890625,-0.25282955169677734,-0.39670705795288086,0.12137816846370697
1721411588619741200,12.7967412109375,-0.1572742462158203,-0.5633684396743774,-0.1537420004606247
1721411588632598300,12.809598388671875,-0.0926361083984375,-0.7189325094223022,-0.4564693570137024
1721411588645459700,12.822459716796875,-0.02456188201904297,-0.8479399681091309,-0.737711489200592
1721411588658307800,12.835307861328126,0.0770406723022461,-0.9742300510406494,-0.9907435774803162
1721411588671180000,12.848179931640624,-0.0322113037109375,-0.8364418745040894,-1.1669197082519531
1721411588684034000,12.861033935546875,-0.04920673370361328,-0.7853083610534668,-1.2437397241592407
1721411588696879000,12.873879150390625,-0.076019287109375,-0.5460066795349121,-1.2500863075256348
1721411588709774300,12.8867744140625,-0.0961160659790039,-0.2857557535171509,-1.1227264404296875
1721411588722604000,12.89960400390625,-0.042975425720214844,-0.008772730827331543,-0.8837797045707703
1721411588735476700,12.912476806640624,0.049612998962402344,0.30991172790527344,-0.5808080434799194
1721411588748333800,12.925333740234375,0.16818714141845703,0.5451780557632446,-0.38777896761894226
1721411588761193000,12.93819287109375,0.20837020874023438,0.5708936452865601,-0.2621302008628845
1721411588774048000,12.951048095703126,0.06780052185058594,0.6192271709442139,-0.27095478773117065
1721411588786925000,12.963925048828125,-0.2104635238647461,0.5752931833267212,-0.32525044679641724
1721411588799765200,12.97676513671875,-0.4646720886230469,0.4912986755371094,-0.342570424079895
1721411588812628700,12.989628662109375,-0.5957965850830078,0.4169497489929199,-0.3334770202636719
1721411588825499600,13.002499755859375,-0.6276102066040039,0.32086241245269775,-0.3153683543205261
1721411588838342700,13.0153427734375,-0.5023059844970703,0.23808836936950684,-0.24854716658592224
1721411588851201500,13.028201416015625,-0.38813018798828125,0.17327070236206055,-0.13780224323272705
1721411588864074200,13.04107421875,-0.37464141845703125,0.1861100196838379,-0.0462188720703125
1721411588876926700,13.0539267578125,-0.40453433990478516,0.2263559103012085,-0.031230568885803223
1721411588889809400,13.066809326171875,-0.46727657318115234,0.2657381296157837,-0.03592514991760254
1721411588902645800,13.079645751953125,-0.559748649597168,0.3932676315307617,-0.03679555654525757
1721411588915492900,13.092492919921876,-0.5809011459350586,0.46382391452789307,-0.036285400390625
1721411588928358100,13.105358154296875,-0.5509176254272461,0.5189279317855835,0.03195697069168091
1721411588941230300,13.118230224609375,-0.4838886260986328,0.6763548851013184,0.09491872787475586
1721411588954089700,13.13108984375,-0.4033050537109375,0.8518637418746948,0.19021940231323242
1721411588966911000,13.143910888671876,-0.24615764617919922,1.0131198167800903,0.26176750659942627
1721411588979792600,13.156792724609375,-0.06925106048583984,1.068848729133606,0.28408974409103394
1721411588992647400,13.1696474609375,0.03668785095214844,1.1004304885864258,0.21334177255630493
1721411589005507600,13.182507568359375,0.114471435546875,1.1332330703735352,0.06402695178985596
1721411589018368500,13.195368408203125,0.08713531494140625,1.1082838773727417,-0.07015916705131531
1721411589031225600,13.2082255859375,0.11824417114257812,1.089339256286621,-0.15459194779396057
1721411589044086300,13.221086181640626,0.13988399505615234,1.0655239820480347,-0.19247308373451233
1721411589056944400,13.2339443359375,0.2147226333618164,1.114186406135559,-0.14179974794387817
1721411589069802500,13.246802490234375,0.3282155990600586,1.1561094522476196,-0.06805041432380676
1721411589082662100,13.259662109375,0.47649097442626953,1.180407166481018,-0.020318031311035156
1721411589095518700,13.272518798828125,0.6306934356689453,1.0928255319595337,-0.026819676160812378
1721411589108379100,13.285379150390625,0.7242860794067383,0.9233934879302979,-0.08946958184242249
1721411589121238000,13.298238037109375,0.8805646896362305,0.6392899751663208,-0.17385658621788025
1721411589134097000,13.311096923828124,0.9334917068481445,0.3716905117034912,-0.14351481199264526
1721411589146956000,13.3239560546875,0.8389225006103516,0.35412049293518066,-0.04561451077461243
1721411589159815200,13.336815185546875,0.8037223815917969,0.30880188941955566,0.10133576393127441
1721411589172674000,13.349674072265625,0.8901662826538086,0.2652636766433716,0.27829957008361816
1721411589185532400,13.362532470703124,0.9303064346313477,0.34602808952331543,0.3710188567638397
1721411589198392800,13.375392822265624,0.9483442306518555,0.35668444633483887,0.5229991674423218
1721411589211250200,13.388250244140625,0.9723386764526367,0.296245813369751,0.6720843315124512
1721411589224108300,13.4011083984375,0.9062795639038086,0.10172629356384277,0.7027424573898315
1721411589236968000,13.413968017578124,0.8922033309936523,-0.27710556983947754,0.6528295278549194
1721411589249827000,13.4268271484375,0.7750148773193359,-0.5831215381622314,0.509115993976593
1721411589262686000,13.43968603515625,0.6105108261108398,-0.8895864486694336,0.2572454810142517
1721411589275556000,13.45255615234375,0.43187999725341797,-1.1869075298309326,0.07831862568855286
1721411589288401400,13.4654013671875,0.3299093246459961,-1.3588616847991943,-0.026870928704738617
1721411589301270300,13.478270263671876,0.3085622787475586,-1.6209419965744019,-0.14910095930099487
1721411589314133800,13.4911337890625,0.19720458984375,-1.7656291723251343,-0.16124433279037476
1721411589326992000,13.503991943359376,0.05761528015136719,-1.7150564193725586,-0.1729566603899002
1721411589339853800,13.516853759765626,-0.2091655731201172,-1.550107479095459,-0.13326722383499146
1721411589352711400,13.52971142578125,-0.5367574691772461,-1.47262704372406,-0.06570816785097122
1721411589365546200,13.542546142578125,-0.8016881942749023,-1.2971800565719604,0.12566976249217987
1721411589378422500,13.555422607421875,-1.0113859176635742,-1.0619313716888428,0.3510487377643585
1721411589391291000,13.568290771484374,-1.074209213256836,-0.7724233865737915,0.5397391319274902
1721411589404133400,13.58113330078125,-1.0343284606933594,-0.6142210960388184,0.6750723719596863
1721411589416995800,13.593995849609374,-0.9344110488891602,-0.5695401430130005,0.7404221892356873
1721411589429853400,13.606853515625,-0.7892732620239258,-0.5920116901397705,0.7387209534645081
1721411589442714000,13.619714111328125,-0.5704307556152344,-0.5794365406036377,0.68998783826828
1721411589455584000,13.632583984375,-0.48647117614746094,-0.4811941385269165,0.673389732837677
1721411589468423700,13.645423583984375,-0.4029064178466797,-0.3162902593612671,0.6028395891189575
1721411589481288000,13.658287841796875,-0.34719085693359375,-0.2799410820007324,0.5421026349067688
1721411589494146800,13.671146728515625,-0.13141441345214844,-0.3274719715118408,0.49959203600883484
1721411589507004000,13.68400390625,0.008831024169921875,-0.3185696601867676,0.39264169335365295
1721411589519864000,13.696864013671876,-0.020294189453125,-0.21843111515045166,0.22209110856056213
1721411589532723500,13.709723388671875,-0.16651535034179688,-0.06984937191009521,0.07160546630620956
1721411589545571600,13.722571533203125,-0.3399038314819336,0.08501279354095459,0.07934699952602386
1721411589558443800,13.73544384765625,-0.5229949951171875,0.40694570541381836,0.20177555084228516
1721411589571294000,13.7482939453125,-0.46162891387939453,0.6593422889709473,0.3552008271217346
1721411589584158000,13.761157958984375,-0.2741889953613281,0.7200349569320679,0.5284096002578735
1721411589597031400,13.774031494140624,-0.12072181701660156,0.852566123008728,0.6210485696792603
1721411589609873000,13.786872802734376,-0.043448448181152344,0.8984042406082153,0.6208042502403259
1721411589622735600,13.799735595703124,0.052700042724609375,0.8107677698135376,0.6185696125030518
1721411589635595500,13.812595458984376,0.028047561645507812,0.756455659866333,0.5318267941474915
1721411589648452000,13.8254521484375,-0.0065708160400390625,0.6687521934509277,0.42558756470680237
1721411589661312500,13.8383125,-0.06879234313964844,0.5400583744049072,0.25751999020576477
1721411589674168600,13.85116845703125,-0.07269668579101562,0.42639899253845215,0.05796954035758972
1721411589687031300,13.86403125,-0.11464691162109375,0.35028743743896484,-0.06421437859535217
1721411589699905300,13.8769052734375,-0.15535926818847656,0.31585848331451416,-0.17076972126960754
1721411589712757500,13.889757568359375,-0.2581300735473633,0.38947737216949463,-0.2559022307395935
1721411589725615600,13.90261572265625,-0.40769386291503906,0.5626835823059082,-0.36812716722488403
1721411589738486300,13.915486328125,-0.4797811508178711,0.6008620262145996,-0.4568847715854645
1721411589751319600,13.928319580078124,-0.4945344924926758,0.5596094131469727,-0.5105992555618286
1721411589764183600,13.94118359375,-0.5289125442504883,0.5536596775054932,-0.5468252301216125
1721411589777041700,13.954041748046874,-0.5974025726318359,0.559788703918457,-0.5266937017440796
1721411589789901600,13.966901611328124,-0.6431999206542969,0.6363191604614258,-0.4253237843513489
1721411589802760400,13.979760498046875,-0.631718635559082,0.6456246376037598,-0.3220841586589813
1721411589815620400,13.992620361328125,-0.553339958190918,0.5628423690795898,-0.19925664365291595
1721411589828478500,14.005478515625,-0.3660240173339844,0.4259326457977295,-0.08406737446784973
1721411589841335600,14.01833544921875,-0.2020254135131836,0.28908228874206543,0.044161904603242874
1721411589854199600,14.031199462890624,-0.12892913818359375,0.2684924602508545,0.17459401488304138
1721411589867071500,14.044071533203125,-0.19852828979492188,0.2817368507385254,0.29606035351753235
1721411589879911200,14.0569111328125,-0.2575511932373047,0.29538869857788086,0.4189794361591339
1721411589892789000,14.0697890625,-0.28748512268066406,0.3526785373687744,0.5712692737579346
1721411589905636400,14.08263623046875,-0.2884836196899414,0.42563486099243164,0.6752761602401733
1721411589918505500,14.09550537109375,-0.2413501739501953,0.5412552356719971,0.7803605198860168
1721411589931362300,14.1083623046875,-0.1808490753173828,0.7395598888397217,0.8536715507507324
1721411589944218400,14.12121826171875,-0.049452781677246094,0.8611485958099365,0.926922082901001
1721411589957064200,14.134064208984375,0.18208694458007812,0.8924338817596436,0.9002280831336975
1721411589969926400,14.146926513671875,0.4050149917602539,0.7621185779571533,0.792914092540741
1721411589982781000,14.159781005859376,0.4962425231933594,0.5484457015991211,0.5934808850288391
1721411589995645400,14.1726455078125,0.4254436492919922,0.3464696407318115,0.3120395541191101
1721411590008490500,14.185490478515625,0.3602609634399414,0.05278587341308594,0.05215586721897125
1721411590021366800,14.19836669921875,0.43221187591552734,-0.23180723190307617,-0.14073127508163452
1721411590034219500,14.211219482421875,0.5799846649169922,-0.6617261171340942,-0.09276294708251953
1721411590047081000,14.2240810546875,0.7281694412231445,-0.7731245756149292,0.08073390275239944
1721411590059933700,14.23693359375,0.9975814819335938,-0.8137143850326538,0.2670656442642212
1721411590072798000,14.2497978515625,1.5139436721801758,-0.9566999673843384,0.47285470366477966
1721411590085656600,14.262656494140625,1.916417121887207,-1.1526517868041992,0.49604320526123047
1721411590098514400,14.275514404296874,2.060065269470215,-1.2806661128997803,0.36180809140205383
1721411590111374800,14.288374755859374,1.8939809799194336,-1.4349963665008545,0.036748141050338745
1721411590124234500,14.301234375,1.4388313293457031,-1.5721800327301025,-0.3741160035133362
1721411590137092000,14.314092041015625,0.9510087966918945,-1.689468264579773,-0.7243465185165405
1721411590149951500,14.326951416015625,0.6126928329467773,-1.6782917976379395,-0.91690993309021
1721411590162810000,14.33981005859375,0.3619089126586914,-1.5624909400939941,-0.9977268576622009
1721411590175669200,14.352669189453126,0.23670578002929688,-1.4449591636657715,-0.9707980751991272
1721411590188528400,14.3655283203125,0.12143516540527344,-1.2808637619018555,-0.8686058521270752
1721411590201391400,14.378391357421876,-0.019158363342285156,-1.1036403179168701,-0.7926056981086731
1721411590214230800,14.391230712890625,-0.15120220184326172,-0.9577478170394897,-0.6980167031288147
1721411590227129900,14.4041298828125,-0.247650146484375,-0.8167028427124023,-0.6497626900672913
1721411590239976400,14.4169765625,-0.30218505859375,-0.7845591306686401,-0.6670547127723694
1721411590252837400,14.42983740234375,-0.40517234802246094,-0.8400622606277466,-0.7327640652656555
1721411590265660400,14.442660400390626,-0.5748081207275391,-0.9807296991348267,-0.7365561723709106
1721411590278553300,14.45555322265625,-0.7540655136108398,-0.9730079174041748,-0.6802719831466675
1721411590291421200,14.468421142578125,-0.8083066940307617,-0.8545422554016113,-0.5237486362457275
1721411590304266800,14.481266845703125,-0.7652664184570312,-0.7744665145874023,-0.23968768119812012
1721411590317130500,14.494130615234376,-0.6478614807128906,-0.6915773153305054,0.019384004175662994
1721411590329990400,14.506990478515625,-0.7620925903320312,-0.5947873592376709,0.19619470834732056
1721411590342844700,14.5198447265625,-0.8516769409179688,-0.4174767732620239,0.40266600251197815
1721411590355693600,14.532693603515625,-0.8118810653686523,-0.26044678688049316,0.576231837272644
1721411590368556300,14.545556396484375,-0.8638410568237305,0.016776323318481445,0.8143012523651123
1721411590381420500,14.558420654296874,-0.9684743881225586,0.2097320556640625,0.8685303926467896
1721411590394286000,14.5712861328125,-1.190812110900879,0.4830589294433594,0.7444349527359009
1721411590407136300,14.58413623046875,-1.3230352401733398,0.5119454860687256,0.5568894743919373
1721411590420002800,14.5970029296875,-1.3592252731323242,0.49939584732055664,0.3233746588230133
1721411590432862200,14.6098623046875,-1.2220335006713867,0.4825625419616699,0.22285999357700348
1721411590445717800,14.6227177734375,-1.0071277618408203,0.48859524726867676,0.1527964174747467
1721411590458602200,14.635602294921876,-0.7036552429199219,0.4817690849304199,0.08513736724853516
1721411590471429000,14.64842919921875,-0.3861207962036133,0.3602466583251953,0.04945019632577896
1721411590484269600,14.66126953125,-0.17709827423095703,0.21949362754821777,0.03036031872034073
1721411590497145300,14.674145263671875,-0.254364013671875,0.22438645362854004,0.062220651656389236
1721411590509994000,14.686993896484376,-0.3734283447265625,0.34786152839660645,0.21047043800354004
1721411590522862300,14.6998623046875,-0.23375701904296875,0.6550595760345459,0.33548155426979065
1721411590535720200,14.71272021484375,0.13468647003173828,0.7648346424102783,0.5261156558990479
1721411590548567600,14.725567626953126,0.4479179382324219,0.9059712886810303,0.5679495930671692
1721411590561439700,14.738439697265624,0.5141811370849609,1.1284728050231934,0.3829284608364105
1721411590574299100,14.751299072265626,0.5015745162963867,1.193037986755371,0.21902376413345337
1721411590587155200,14.7641552734375,0.4596090316772461,1.1925175189971924,0.04349642992019653
1721411590600017700,14.777017578125,0.24922466278076172,1.253417730331421,-0.200119748711586
1721411590612870400,14.789870361328125,0.115997314453125,1.2072267532348633,-0.40027323365211487
1721411590625732900,14.80273291015625,-0.05106544494628906,1.1840555667877197,-0.5770722031593323
1721411590638591700,14.815591796875,-0.0878152847290039,1.0588574409484863,-0.7831805348396301
1721411590651439400,14.828439453125,-0.033229827880859375,0.8988919258117676,-0.9292149543762207
1721411590664312000,14.84131201171875,-0.02582550048828125,0.7823584079742432,-1.025539517402649
1721411590677173800,14.854173828125,0.0198211669921875,0.7231910228729248,-1.043683648109436
1721411590690025200,14.867025146484375,0.052600860595703125,0.7236356735229492,-1.0103658437728882
1721411590702886000,14.879885986328125,0.0391845703125,0.6662461757659912,-0.9236871004104614
1721411590715760400,14.892760498046876,-0.0380859375,0.7664458751678467,-0.7980490326881409
1721411590728600300,14.905600341796875,-0.09570884704589844,0.8764843940734863,-0.7162750363349915
1721411590741473300,14.918473388671876,0.06107807159423828,0.8256301879882812,-0.5718851089477539
1721411590754335000,14.9313349609375,0.45533084869384766,0.7124106884002686,-0.3822186589241028
1721411590767179800,14.9441796875,0.8954830169677734,0.6586582660675049,-0.12327858060598373
1721411590780048600,14.957048583984376,1.3249731063842773,0.6786446571350098,0.12204019725322723
1721411590792910800,14.969910888671874,1.541128158569336,0.5686922073364258,0.26730290055274963
1721411590805768700,14.982768798828126,1.5690765380859375,0.3168504238128662,0.34839656949043274
1721411590818629600,14.995629638671875,1.6156597137451172,-0.06793904304504395,0.343090295791626
1721411590831488500,15.008488525390625,1.3631277084350586,-0.263289213180542,0.1688956767320633
1721411590844334300,15.021334228515625,1.0142087936401367,-0.514264702796936,-0.08560580015182495
1721411590857209300,15.034209228515625,0.5751533508300781,-0.6532653570175171,-0.33723193407058716
1721411590870052900,15.047052978515625,0.24733257293701172,-0.7165466547012329,-0.3394922614097595
1721411590882918100,15.059918212890626,0.07698440551757812,-0.5832750797271729,-0.29054877161979675
1721411590895784700,15.07278466796875,-0.015764236450195312,-0.4969303607940674,-0.16592544317245483
1721411590908628500,15.08562841796875,0.07572078704833984,-0.5762902498245239,-0.09217830002307892
1721411590921503200,15.098503173828124,0.3509807586669922,-0.8664309978485107,-0.05812498927116394
1721411590934347300,15.11134716796875,0.42479515075683594,-1.2083297967910767,-0.01072382926940918
1721411590947209700,15.124209716796875,0.24077701568603516,-1.392445683479309,0.044615983963012695
1721411590960077600,15.13707763671875,-0.10847854614257812,-1.5048627853393555,0.054395586252212524
1721411590972910600,15.14991064453125,-0.40274810791015625,-1.6050376892089844,0.17810411751270294
1721411590985784600,15.16278466796875,-0.48309803009033203,-1.4602406024932861,0.26960012316703796
1721411590998640000,15.17564013671875,-0.4762229919433594,-1.4815843105316162,0.42534175515174866
1721411591011500800,15.188500732421875,-0.36040496826171875,-1.4833929538726807,0.5760233402252197
1721411591024359000,15.20135888671875,-0.30512046813964844,-1.4208629131317139,0.6228460073471069
1721411591037217800,15.2142177734375,-0.4415283203125,-1.3446046113967896,0.6576986908912659
1721411591050078200,15.227078125,-0.6559352874755859,-1.0293594598770142,0.5930811166763306
1721411591062933000,15.23993310546875,-0.7517461776733398,-0.7933222055435181,0.5546828508377075
1721411591075812900,15.252812744140625,-0.6946296691894531,-0.6979058980941772,0.5866247415542603
1721411591088653600,15.265653564453125,-0.5020008087158203,-0.49467790126800537,0.7020167112350464
1721411591101526000,15.278526123046875,-0.3054533004760742,-0.26915836334228516,0.7802923321723938
1721411591114369500,15.29136962890625,-0.14594554901123047,-0.16304540634155273,0.8380605578422546
1721411591127229700,15.304229736328125,-0.06154060363769531,-0.10004281997680664,0.8154639005661011
1721411591140087600,15.317087646484374,-0.11853408813476562,-0.04462385177612305,0.7385351657867432
1721411591152950000,15.329949951171875,-0.24514007568359375,0.024245262145996094,0.7003538608551025
1721411591165807000,15.34280712890625,-0.3893880844116211,0.16100478172302246,0.5737762451171875
1721411591178665000,15.3556650390625,-0.47518253326416016,0.29251909255981445,0.38953492045402527
1721411591191509500,15.368509521484375,-0.6420354843139648,0.3299591541290283,0.2226037085056305
1721411591204385500,15.381385498046875,-0.7953109741210938,0.3397691249847412,0.06797201931476593
1721411591217256400,15.39425634765625,-0.9026565551757812,0.3486795425415039,-0.03473176062107086
1721411591230114000,15.407114013671874,-0.8166389465332031,0.33992815017700195,-0.11859909445047379
1721411591242979000,15.41997900390625,-0.5926752090454102,0.1071925163269043,-0.12633168697357178
1721411591255831600,15.43283154296875,-0.33675384521484375,0.0020220279693603516,-0.13146086037158966
1721411591268689400,15.445689453125,-0.14266109466552734,0.05000638961791992,-0.11205536872148514
1721411591281530400,15.4585302734375,-0.024160385131835938,0.1391739845275879,-0.13767290115356445
1721411591294411000,15.471410888671874,0.048468589782714844,0.15503263473510742,-0.17117853462696075
1721411591307275500,15.484275634765625,-0.039844512939453125,0.2549154758453369,-0.20382991433143616
1721411591320127000,15.497126953125,-0.2227334976196289,0.35407519340515137,-0.2277354747056961
1721411591332971000,15.509970947265625,-0.3340902328491211,0.4913172721862793,-0.254494309425354
1721411591345845800,15.522845703125,-0.4386920928955078,0.5873992443084717,-0.2673064172267914
1721411591358693600,15.535693603515625,-0.4856433868408203,0.656475305557251,-0.2614952623844147
1721411591371566300,15.54856640625,-0.49854087829589844,0.7559692859649658,-0.2597123682498932
1721411591384409600,15.56140966796875,-0.5067110061645508,0.813323974609375,-0.21390774846076965
1721411591397268200,15.574268310546875,-0.49129772186279297,0.8914918899536133,-0.1821998953819275
1721411591410127400,15.58712744140625,-0.34819889068603516,0.9410622119903564,-0.17419636249542236
1721411591422986800,15.59998681640625,-0.1862325668334961,0.872920036315918,-0.15134888887405396
1721411591435845600,15.612845703125,-0.10142993927001953,0.7575955390930176,-0.05120014399290085
1721411591448703500,15.625703369140625,-0.042243003845214844,0.8259119987487793,0.0007941648364067078
1721411591461564700,15.638564697265625,0.022663116455078125,0.7827761173248291,0.09611603617668152
1721411591474422000,15.651422119140625,0.06555366516113281,0.6666924953460693,0.1815035194158554
1721411591487282400,15.664282470703125,0.07248687744140625,0.6069366931915283,0.24266555905342102
1721411591500140000,15.67714013671875,0.02799224853515625,0.6840176582336426,0.30498188734054565
1721411591512999200,15.689999267578125,-0.10086822509765625,0.7718861103057861,0.4242250621318817
1721411591525858800,15.70285888671875,-0.1668844223022461,0.9456934928894043,0.5909114480018616
1721411591538717200,15.71571728515625,-0.08594512939453125,1.1317942142486572,0.6831889152526855
1721411591551576300,15.728576416015626,0.133758544921875,1.184816598892212,0.7451390624046326
1721411591564438800,15.741438720703124,0.36650657653808594,1.1275615692138672,0.7155900597572327
1721411591577307600,15.7543076171875,0.5233516693115234,0.886422872543335,0.6045954823493958
1721411591590165800,15.767165771484375,0.48388099670410156,0.6043665409088135,0.2809934616088867
1721411591603026000,15.78002587890625,0.3648386001586914,0.1365346908569336,-0.14949874579906464
1721411591615867400,15.792867431640625,0.5606822967529297,-0.33134257793426514,-0.457919716835022
1721411591628730400,15.80573046875,0.8331508636474609,-0.7442048788070679,-0.7537715435028076
1721411591641588700,15.818588623046875,1.4279651641845703,-0.8943955898284912,-0.6561357975006104
1721411591654447600,15.831447509765624,1.8484010696411133,-1.1180449724197388,-0.3945613205432892
1721411591667307800,15.844307861328126,1.9653186798095703,-1.2545109987258911,-0.15979599952697754
1721411591680165400,15.857165283203125,1.7436656951904297,-1.1528687477111816,0.10942217707633972
1721411591693025300,15.870025390625,1.5990877151489258,-1.2846869230270386,0.30036529898643494
1721411591705883400,15.88288330078125,1.5651359558105469,-1.3140175342559814,0.43300890922546387
1721411591718759200,15.89575927734375,1.5354804992675781,-1.2118984460830688,0.46642616391181946
1721411591731615500,15.908615478515625,1.4088020324707031,-1.1247591972351074,0.3830823600292206
1721411591744470300,15.92147021484375,1.0883045196533203,-1.1054505109786987,0.15664225816726685
1721411591757332500,15.93433251953125,0.4693775177001953,-1.120667576789856,-0.19623976945877075
1721411591770190800,15.94719091796875,-0.11686897277832031,-1.1777291297912598,-0.5166612863540649
1721411591783037700,15.96003759765625,-0.46545982360839844,-1.14915132522583,-0.6852483749389648
1721411591795900000,15.97289990234375,-0.5894050598144531,-0.9794212579727173,-0.711568295955658
1721411591808756500,15.985756591796875,-0.597233772277832,-0.8076144456863403,-0.6387235522270203
