time,seconds_elapsed,z,y,x
1721411575876789000,0.0537890625,0.032070424407720566,-0.05742133408784866,-0.05375614017248154
1721411575889659400,0.066659423828125,0.03451388701796532,-0.009010262787342072,-0.08674286305904388
1721411575902510000,0.079510009765625,0.0377209298312664,-0.1033889427781105,-0.11804971098899841
1721411575915380200,0.092380126953125,-0.01542434748262167,-0.2767219543457031,-0.08032877743244171
1721411575928226600,0.1052265625,-0.07162395119667053,-0.2541199326515198,-0.09315694868564606
1721411575941097000,0.118096923828125,-0.07559457421302795,-0.1368338167667389,-0.12400564551353455
1721411575953952500,0.130952392578125,-0.05207626149058342,0.03390302136540413,-0.11682797968387604
1721411575966813700,0.143813720703125,-0.03695734590291977,0.15500704944133759,-0.1134682223200798
1721411575979669500,0.15666943359375,-0.02626720629632473,0.19379699230194092,-0.09636399149894714
1721411575992528000,0.16952783203125,-0.016798794269561768,0.22281309962272644,-0.08307767659425735
1721411576005386000,0.182385986328125,-0.039706241339445114,0.18875735998153687,-0.08796459436416626
1721411576018231600,0.1952314453125,-0.06902777403593063,0.13668109476566315,-0.05650503560900688
1721411576031106600,0.2081064453125,-0.07177666574716568,0.09193521738052368,-0.011453723534941673
1721411576043959800,0.220959716796875,-0.04505131021142006,0.0630718395113945,0.022907447069883347
1721411576056821000,0.233821044921875,-0.02321287989616394,0.04382958263158798,0.04398229718208313
1721411576069678000,0.246677978515625,-0.01970040425658226,0.03191770985722542,0.0659734457731247
1721411576082550800,0.25955078125,-0.04459316283464432,0.05955936014652252,0.11545353382825851
1721411576095405000,0.272405029296875,-0.08674286305904388,0.10399980843067169,0.15256360173225403
1721411576108250600,0.285250732421875,-0.13209961354732513,0.16661348938941956,0.144622340798378
1721411576121102000,0.29810205078125,-0.16142113506793976,0.25106561183929443,0.09789115190505981
1721411576133972000,0.310971923828125,-0.1598939746618271,0.31749722361564636,0.03191770985722542
1721411576146827800,0.323827880859375,-0.13500121235847473,0.3068070709705353,-0.017562376335263252
1721411576159678500,0.336678466796875,-0.11621711403131485,0.251218318939209,-0.03298672288656235
1721411576172537900,0.349537841796875,-0.09972374886274338,0.15821409225463867,-0.050854530185461044
1721411576185408000,0.362407958984375,-0.07238753139972687,0.06520986557006836,-0.05757404863834381
1721411576198252500,0.37525244140625,-0.036651913076639175,-0.0022907445672899485,-0.055741455405950546
1721411576211140000,0.38814013671875,0.00366519158706069,-0.038179077208042145,-0.044287730008363724
1721411576223989800,0.40098974609375,0.04352414980530739,-0.02825251780450344,-0.003817907767370343
1721411576236839200,0.413839111328125,0.05161811411380768,-0.005192354787141085,0.03390302136540413
1721411576249709000,0.426708984375,0.03940080851316452,0.01038470957428217,0.036193765699863434
1721411576262569500,0.439569580078125,0.036651913076639175,0.04917465150356293,0.04459316283464432
1721411576275424000,0.452424072265625,0.03375030308961868,0.09147707372903824,0.07727445662021637
1721411576288272400,0.4652724609375,0.021074850112199783,0.10354165732860565,0.11835514008998871
1721411576301147400,0.4781474609375,0.02321287989616394,0.09636399149894714,0.15012013912200928
1721411576313998300,0.490998291015625,0.05009094998240471,0.0832303911447525,0.16142113506793976
1721411576326873000,0.503873046875,0.07330382615327835,0.07483099400997162,0.15195272862911224
1721411576339714800,0.51671484375,0.061391957104206085,0.057879481464624405,0.1408044397830963
1721411576352562000,0.52956201171875,0.03329215571284294,0.05406157299876213,0.14309518039226532
1721411576365439200,0.542439208984375,0.02825251780450344,0.06734789162874222,0.14905111491680145
1721411576378281200,0.55528125,0.010995574295520782,0.08292495459318161,0.1560760736465454
1721411576391128800,0.56812890625,-0.029474247246980667,0.09957103431224823,0.16539175808429718
1721411576403998200,0.580998291015625,-0.06963863968849182,0.10170906037092209,0.1563815027475357
1721411576416845800,0.593845703125,-0.0936150997877121,0.0858265683054924,0.11972958594560623
1721411576429717500,0.606717529296875,-0.08689557760953903,0.060475658625364304,0.06398813426494598
1721411576442566000,0.61956591796875,-0.07040221989154816,0.016951510682702065,0.016798794269561768
1721411576455429600,0.6324296875,-0.04077525436878204,-0.0010690141934901476,-0.005955935921519995
1721411576468281900,0.64528173828125,-0.023365596309304237,-0.012980886735022068,-0.026419922709465027
1721411576481150500,0.658150390625,-0.038026362657547,-0.01191187184303999,-0.035124752670526505
1721411576494019800,0.671019775390625,-0.04749477282166481,-0.030085112899541855,-0.05467243865132332
1721411576506862600,0.683862548828125,-0.04856378585100174,-0.05910121276974678,-0.059406645596027374
1721411576519723000,0.696722900390625,-0.0377209298312664,-0.06398813426494598,-0.04352414980530739
1721411576532581400,0.709581298828125,-0.00855211354792118,-0.043218716979026794,-0.03344487398862839
1721411576545441800,0.72244189453125,0.010995574295520782,-0.03940080851316452,-0.04306599870324135
1721411576558298600,0.735298583984375,0.023518312722444534,-0.059864792972803116,-0.051312681287527084
1721411576571157200,0.7481572265625,0.03222314268350601,-0.10705413669347763,-0.048716504126787186
1721411576584013300,0.761013427734375,0.027641652151942253,-0.14813482761383057,-0.05100724846124649
1721411576596873200,0.773873291015625,-0.0006108652451075613,-0.1495092660188675,-0.04642575979232788
1721411576609733400,0.7867333984375,-0.04856378585100174,-0.10873401165008545,-0.02275473065674305
1721411576622604000,0.79960400390625,-0.07620543986558914,-0.03390302136540413,0.012064588256180286
1721411576635460000,0.812460205078125,-0.046273041516542435,0.04856378585100174,0.04245513305068016
1721411576648305700,0.8253056640625,0.00733038317412138,0.06582073122262955,0.040622539818286896
1721411576661177600,0.838177490234375,0.04657847434282303,0.027488935738801956,0.03497203439474106
1721411576674036200,0.8510361328125,0.07498370856046677,-0.02687807008624077,0.04153883829712868
1721411576686896400,0.863896484375,0.07024950534105301,-0.0630718395113945,0.033139441162347794
1721411576699779000,0.876779052734375,0.07177666574716568,-0.06918048858642578,0.009926560334861279
1721411576712588000,0.889588134765625,0.10613783448934555,-0.08109235763549805,-0.005345070734620094
1721411576725458400,0.90245849609375,0.13775011897087097,-0.09896016865968704,0.022907447069883347
1721411576738307800,0.915307861328125,0.16920967400074005,-0.11209376901388168,0.051312681287527084
1721411576751179000,0.928178955078125,0.19608774781227112,-0.1033889427781105,0.04917465150356293
1721411576764031200,0.94103125,0.20830504596233368,-0.08765916526317596,0.03573561832308769
1721411576776893000,0.953892822265625,0.21471913158893585,-0.08155050873756409,0.013897184282541275
1721411576789751300,0.966751220703125,0.20662516355514526,-0.098502017557621,-0.029932396486401558
1721411576802609700,0.979609619140625,0.16310101747512817,-0.11224649101495743,-0.07040221989154816
1721411576815484200,0.992484130859375,0.09147707372903824,-0.12599095702171326,-0.10766500234603882
1721411576828326700,1.00532666015625,0.03787364438176155,-0.12400564551353455,-0.12522737681865692
1721411576841197600,1.018197509765625,0.05009094998240471,-0.11423180252313614,-0.1238529309630394
1721411576854054000,1.031053955078125,0.11911872029304504,-0.07131851464509964,-0.09285151958465576
1721411576866911700,1.043911865234375,0.17119498550891876,-0.02015855349600315,-0.06933320313692093
1721411576879758000,1.056758056640625,0.16859880089759827,-0.010537425056099892,-0.06459899991750717
1721411576892618200,1.0696181640625,0.15225815773010254,0.025656340643763542,-0.025961773470044136
1721411576905477000,1.08247705078125,0.10781771689653397,0.056810468435287476,0.005192354787141085
1721411576918325500,1.095325439453125,0.04199698567390442,0.05757404863834381,0.0007635815418325365
1721411576931194400,1.1081943359375,0.009162978269159794,0.03680463135242462,-0.006719517521560192
1721411576944050400,1.121050537109375,0.018936822190880775,-0.00427605677396059,0.011759156361222267
1721411576956907000,1.133906982421875,0.08933904021978378,-0.019394971430301666,0.0659734457731247
1721411576969786400,1.146786376953125,0.1595885455608368,-0.01038470957428217,0.11163562536239624
1721411576982637300,1.15963720703125,0.17043140530586243,-0.0007635815418325365,0.12400564551353455
1721411576995483600,1.172483642578125,0.1485929638147354,-0.005650503560900688,0.11041389405727386
1721411577008347600,1.18534765625,0.11972958594560623,-0.022907447069883347,0.07727445662021637
1721411577021192700,1.198192626953125,0.10690141469240189,-0.03741549700498581,0.031001411378383636
1721411577034064100,1.211064208984375,0.11575896292924881,-0.035124752670526505,-0.016340645030140877
1721411577046919200,1.223919189453125,0.10506882518529892,-0.01817324012517929,-0.057879481464624405
1721411577059777300,1.23677734375,0.06490442901849747,0.004428773187100887,-0.08155050873756409
1721411577072637200,1.24963720703125,-0.00366519158706069,0.03298672288656235,-0.07498370856046677
1721411577085486600,1.262486572265625,-0.06887505948543549,0.06902777403593063,-0.03436116874217987
1721411577098356500,1.2753564453125,-0.08399397134780884,0.08475755155086517,0.003054326167330146
1721411577111213000,1.288213134765625,-0.04642575979232788,0.08261952549219131,0.03634648025035858
1721411577124070700,1.301070556640625,-0.04886921867728233,0.05360342562198639,0.055894169956445694
1721411577136942600,1.313942626953125,-0.05115996301174164,0.013591751456260681,0.05467243865132332
1721411577149785000,1.32678515625,-0.05604688450694084,0.006261368747800589,0.055894169956445694
1721411577162638800,1.339638916015625,-0.04535674303770065,0.05604688450694084,0.07162395119667053
1721411577175490800,1.35249072265625,-0.01038470957428217,0.12400564551353455,0.07177666574716568
1721411577188355600,1.36535546875,0.032070424407720566,0.17501288652420044,0.06841690838336945
1721411577201224200,1.37822412109375,0.08445212244987488,0.18020524084568024,0.08002334833145142
1721411577214080500,1.39108056640625,0.13087788224220276,0.13820825517177582,0.09758572280406952
1721411577226939000,1.40393896484375,0.144622340798378,0.08032877743244171,0.11255192011594772
1721411577239787300,1.416787353515625,0.1362229436635971,0.052381694316864014,0.11010845750570297
1721411577252658200,1.429658203125,0.12660181522369385,0.05604688450694084,0.08811730891466141
1721411577265510700,1.4425107421875,0.11698069423437119,0.07880161702632904,0.05390885844826698
1721411577278376700,1.455376708984375,0.1241583600640297,0.13576480746269226,0.03680463135242462
1721411577291228400,1.468228515625,0.17043140530586243,0.1336267739534378,0.05054909735918045
1721411577304100600,1.4811005859375,0.24266621470451355,0.048258353024721146,0.08078692853450775
1721411577316961800,1.4939619140625,0.2971859276294708,-0.10125091671943665,0.07208210229873657
1721411577329820000,1.50681982421875,0.30512720346450806,-0.1992947906255722,0.06276640295982361
1721411577342678000,1.519677978515625,0.289244681596756,-0.20051652193069458,0.061391957104206085
1721411577355539700,1.532539794921875,0.26221391558647156,-0.1342376321554184,0.04749477282166481
1721411577368385300,1.54538525390625,0.2428189367055893,-0.10170906037092209,0.02535090781748295
1721411577381255700,1.558255615234375,0.19822576642036438,-0.010079276748001575,0.033139441162347794
1721411577394108700,1.571108642578125,0.16249015927314758,0.04046982154250145,0.03985895588994026
1721411577406970600,1.583970703125,0.1693623960018158,0.03940080851316452,0.09346238523721695
1721411577419816200,1.596816162109375,0.2015855312347412,0.023976460099220276,0.18020524084568024
1721411577432677600,1.609677734375,0.2142609804868698,0.030085112899541855,0.25213462114334106
1721411577445536500,1.62253662109375,0.18600846827030182,0.055283304303884506,0.26022860407829285
1721411577458395000,1.635394775390625,0.09010262042284012,0.04856378585100174,0.20815233886241913
1721411577471251000,1.6482509765625,-0.01924225501716137,0.022449297830462456,0.1595885455608368
1721411577484107500,1.661107421875,-0.0861319974064827,0.049785517156124115,0.11743884533643723
1721411577496966700,1.673966552734375,-0.1371392458677292,0.11698069423437119,0.05711590126156807
1721411577509824800,1.68682470703125,-0.1368338167667389,0.1895209401845932,-0.020922135561704636
1721411577522683400,1.699683349609375,-0.11743884533643723,0.20402899384498596,-0.13500121235847473
1721411577535540200,1.712540283203125,-0.11988230794668198,0.13500121235847473,-0.22128593921661377
1721411577548400600,1.725400634765625,-0.15760323405265808,0.05742133408784866,-0.20799961686134338
1721411577561259300,1.73825927734375,-0.19807305932044983,-0.005650503560900688,-0.14508049190044403
1721411577574118700,1.75111865234375,-0.17272214591503143,-0.044135015457868576,-0.09728029370307922
1721411577586975700,1.763975830078125,-0.0630718395113945,-0.03130684420466423,-0.07788532227277756
1721411577599834600,1.776834716796875,0.06994406878948212,-0.027947084978222847,-0.08139779418706894
1721411577612691000,1.78969091796875,0.1082758679986,-0.06169738993048668,-0.10277807712554932
1721411577625551600,1.802551513671875,0.039095375686883926,-0.08384125679731369,-0.13255776464939117
1721411577638406700,1.81540673828125,-0.07284568250179291,-0.07987063378095627,-0.17516560852527618
1721411577651288000,1.8282880859375,-0.19608774781227112,-0.05650503560900688,-0.20204368233680725
1721411577664123400,1.841123291015625,-0.2632829248905182,-0.029168816283345222,-0.21502456068992615
1721411577676986400,1.853986328125,-0.23884831368923187,0.024129176512360573,-0.23548854887485504
1721411577689841400,1.86684130859375,-0.1511891484260559,0.09605856239795685,-0.26282477378845215
1721411577702703400,1.879703369140625,-0.0679587572813034,0.1365283876657486,-0.30222558975219727
1721411577715558700,1.89255859375,-0.06872233748435974,0.11468994617462158,-0.3289509415626526
1721411577728417000,1.9054169921875,-0.078343465924263,0.0529925599694252,-0.31184670329093933
1721411577741275400,1.918275390625,-0.15195272862911224,-0.01878410577774048,-0.24785856902599335
1721411577754136300,1.93113623046875,-0.21349740028381348,-0.02886338345706463,-0.1742493063211441
1721411577767009000,1.944009033203125,-0.21319197118282318,0.03527746722102165,-0.11239920556545258
1721411577779856400,1.9568564453125,-0.15332718193531036,0.12293662875890732,-0.04642575979232788
1721411577792727300,1.969727294921875,-0.05421429127454758,0.1635591685771942,0.04214970022439957
1721411577805581600,1.98258154296875,0.042760565876960754,0.1062905490398407,0.15027284622192383
1721411577818412300,1.995412353515625,0.10231992602348328,-0.03237585723400116,0.2474004179239273
1721411577831308000,2.00830810546875,0.09056077152490616,-0.17272214591503143,0.2866485118865967
1721411577844142600,2.021142578125,0.03481931984424591,-0.2444988191127777,0.275347501039505
1721411577856993000,2.033992919921875,-0.03634648025035858,-0.2727513313293457,0.19318613409996033
1721411577869905200,2.0469052734375,-0.09162978827953339,-0.23579397797584534,0.08781187981367111
1721411577882729000,2.05972900390625,-0.10476338863372803,-0.15974126756191254,0.016951510682702065
1721411577895583700,2.072583740234375,-0.08903361111879349,-0.11362093687057495,-0.0024434609804302454
1721411577908442000,2.085442138671875,-0.0607810914516449,-0.13897185027599335,-0.005803219974040985
1721411577921287000,2.098286865234375,-0.044287730008363724,-0.21624629199504852,-0.025961773470044136
1721411577934171600,2.111171630859375,-0.06444628536701202,-0.29016098380088806,-0.05772676691412926
1721411577947027200,2.124027099609375,-0.10690141469240189,-0.30253100395202637,-0.07880161702632904
1721411577959885600,2.136885498046875,-0.15592335164546967,-0.24236078560352325,-0.08307767659425735
1721411577972731100,2.149731201171875,-0.2041817009449005,-0.16172657907009125,-0.0607810914516449
1721411577985603300,2.162603271484375,-0.1820378452539444,-0.0429132841527462,-0.012217304669320583
1721411577998451700,2.17545166015625,-0.09147707372903824,0.08827003091573715,0.02733621932566166
1721411578011320800,2.18832080078125,0.01970040425658226,0.05513058975338936,0.02977968007326126
1721411578024161800,2.201161865234375,0.03130684420466423,-0.08628471940755844,0.03756821155548096
1721411578037023500,2.2140234375,-0.06108652427792549,-0.21013765037059784,0.06505715101957321
1721411578049883400,2.22688330078125,-0.17547103762626648,-0.244804248213768,0.05421429127454758
1721411578062734000,2.239734130859375,-0.28955012559890747,-0.09926560521125793,0.029474247246980667
1721411578075600400,2.252600341796875,-0.35811975598335266,0.168751522898674,0.0377209298312664
1721411578088453000,2.265453125,-0.3341432809829712,0.39385536313056946,0.09208793938159943
1721411578101316400,2.27831640625,-0.24266621470451355,0.4346306324005127,0.19868391752243042
1721411578114163500,2.29116357421875,-0.2168571650981903,0.3550654351711273,0.35613444447517395
1721411578127031600,2.304031494140625,-0.26343563199043274,0.2145664244890213,0.46303585171699524
1721411578139891700,2.3168916015625,-0.33017265796661377,0.07987063378095627,0.4847215712070465
1721411578152750000,2.32975,-0.4242459237575531,-0.003054326167330146,0.41340306401252747
1721411578165608700,2.342608642578125,-0.4867068827152252,0.038637228310108185,0.2678644061088562
1721411578178467300,2.35546728515625,-0.4560109078884125,0.182648703455925,0.05115996301174164
1721411578191313700,2.368313720703125,-0.3484986126422882,0.30405816435813904,-0.16325373947620392
1721411578204186600,2.3811865234375,-0.19089539349079132,0.29535335302352905,-0.2977968156337738
1721411578217032200,2.3940322265625,-0.08216137439012527,0.09651670604944229,-0.32528573274612427
1721411578229903600,2.406903564453125,-0.07208210229873657,-0.18387043476104736,-0.2076941877603531
1721411578242759400,2.419759521484375,-0.09254608303308487,-0.3822489380836487,-0.00045814894838258624
1721411578255616800,2.43261669921875,-0.09896016865968704,-0.40744712948799133,0.1722639948129654
1721411578268480300,2.445480224609375,-0.09285151958465576,-0.2767219543457031,0.23151792585849762
1721411578281351000,2.458350830078125,-0.058337632566690445,-0.04077525436878204,0.1996002197265625
1721411578294191400,2.47119140625,-0.02580905705690384,0.17959438264369965,0.13118331134319305
1721411578307051800,2.4840517578125,0.005955935921519995,0.2921462953090668,0.0679587572813034
1721411578319911700,2.49691162109375,0.058337632566690445,0.22632557153701782,-0.018020525574684143
1721411578332768800,2.509768798828125,0.10461067408323288,0.013591751456260681,-0.1385136991739273
1721411578345627600,2.522627685546875,0.08231408894062042,-0.20799961686134338,-0.2428189367055893
1721411578358486800,2.53548681640625,-0.015577063895761967,-0.36224308609962463,-0.26771169900894165
1721411578371334400,2.54833447265625,-0.11224649101495743,-0.39797869324684143,-0.2356412708759308
1721411578384205800,2.561205810546875,-0.16325373947620392,-0.24465152621269226,-0.2099849283695221
1721411578397079300,2.574079345703125,-0.17027868330478668,-0.004123340360820293,-0.23869559168815613
1721411578409933000,2.58693310546875,-0.11835514008998871,0.18616119027137756,-0.2860376536846161
1721411578422805800,2.5998056640625,-0.025503624230623245,0.22907446324825287,-0.3119994103908539
1721411578435667700,2.612667724609375,0.05009094998240471,0.13530665636062622,-0.2525927722454071
1721411578448490500,2.625490478515625,0.07391469180583954,-0.010842857882380486,-0.11682797968387604
1721411578461371600,2.63837158203125,0.04764748737215996,-0.1342376321554184,0.025503624230623245
1721411578474225700,2.6512255859375,0.04841107130050659,-0.17776179313659668,0.08888089656829834
1721411578487069400,2.6640693359375,0.06200282275676727,-0.15592335164546967,0.06704246252775192
1721411578499947000,2.676947021484375,0.06291911751031876,-0.06872233748435974,0.04245513305068016
1721411578512803300,2.68980322265625,0.06979135423898697,0.059406645596027374,0.03130684420466423
1721411578525659000,2.702658935546875,0.05726861581206322,0.1488984078168869,0.007788531947880983
1721411578538515200,2.71551513671875,0.05161811411380768,0.16691893339157104,-0.03741549700498581
1721411578551358500,2.7283583984375,0.059864792972803116,0.11484266817569733,-0.11133018881082535
1721411578564224500,2.741224609375,0.07895433157682419,0.053297992795705795,-0.1644754707813263
1721411578577081300,2.754081298828125,0.13927727937698364,0.009010262787342072,-0.19043724238872528
1721411578589930000,2.766929931640625,0.19074267148971558,-0.03298672288656235,-0.19104810059070587
1721411578602801700,2.7798017578125,0.18478673696517944,-0.06933320313692093,-0.18738290667533875
1721411578615657000,2.792656982421875,0.1362229436635971,-0.09758572280406952,-0.19257527589797974
1721411578628515300,2.805515380859375,0.0933096632361412,-0.08567385375499725,-0.1895209401845932
1721411578641373700,2.818373779296875,0.06841690838336945,-0.014508049935102463,-0.1667662113904953
1721411578654234000,2.831234130859375,0.07116580009460449,0.0884227454662323,-0.1293507218360901
1721411578667091200,2.84409130859375,0.1059851199388504,0.16233743727207184,-0.10735956579446793
1721411578679949300,2.85694921875,0.13515393435955048,0.1589776873588562,-0.098502017557621
1721411578692808000,2.869807861328125,0.14996741712093353,0.08659014850854874,-0.07498370856046677
1721411578705666600,2.88266650390625,0.15974126756191254,-0.007635815534740686,-0.02229658141732216
1721411578718527000,2.89552685546875,0.1547016203403473,-0.08139779418706894,0.04108068719506264
1721411578731384600,2.908384521484375,0.1238529309630394,-0.09010262042284012,0.06872233748435974
1721411578744232200,2.921232177734375,0.054367005825042725,-0.04108068719506264,0.038637228310108185
1721411578757119200,2.934119140625,-0.029932396486401558,0.06475171446800232,-0.009926560334861279
1721411578769971000,2.946970947265625,-0.0656680166721344,0.18066339194774628,-0.04596760869026184
1721411578782818600,2.959818603515625,-0.03039054572582245,0.25335636734962463,-0.06276640295982361
1721411578795692800,2.97269287109375,0.04138612002134323,0.26969701051712036,-0.054825156927108765
1721411578808535800,2.985535888671875,0.0705549344420433,0.23716843128204346,-0.020311269909143448
1721411578821409800,2.998409912109375,0.052381694316864014,0.12828169763088226,0.025961773470044136
1721411578834259500,3.011259521484375,0.025503624230623245,0.04230241850018501,0.0685696229338646
1721411578847125200,3.024125244140625,0.021532999351620674,0.04703662544488907,0.10491610318422318
1721411578859982000,3.036982177734375,0.0503963828086853,0.10659598559141159,0.12095131725072861
1721411578872823300,3.0498232421875,0.08552113175392151,0.1359175145626068,0.13209961354732513
1721411578885689000,3.062689208984375,0.1488984078168869,0.11942415684461594,0.16203200817108154
1721411578898547200,3.075547119140625,0.22189679741859436,0.06918048858642578,0.2018909603357315
1721411578911404300,3.088404296875,0.270766019821167,-0.0006108652451075613,0.2451096773147583
1721411578924261400,3.101261474609375,0.30833423137664795,-0.05360342562198639,0.29917123913764954
1721411578937121300,3.114121337890625,0.33460143208503723,-0.07024950534105301,0.3773620128631592
1721411578949978400,3.126978271484375,0.3546072840690613,-0.07849618047475815,0.45433104038238525
1721411578962827000,3.139826904296875,0.4005748927593231,-0.0988074541091919,0.5094616413116455
1721411578975698400,3.152698486328125,0.45173484086990356,-0.12018773704767227,0.5345070958137512
1721411578988554200,3.16555419921875,0.46303585171699524,-0.11285735666751862,0.5090034604072571
1721411579001412000,3.178412109375,0.4349360466003418,-0.14095716178417206,0.3956879675388336
1721411579014286300,3.191286376953125,0.37797287106513977,-0.16691893339157104,0.22250767052173615
1721411579027140600,3.204140625,0.31383201479911804,-0.16630806028842926,0.04046982154250145
1721411579039998700,3.216998779296875,0.23915374279022217,-0.11133018881082535,-0.09911288321018219
1721411579052844800,3.2298447265625,0.1466076523065567,-0.001832595793530345,-0.1843285858631134
1721411579065703200,3.242703125,0.10720685124397278,0.10659598559141159,-0.2142609804868698
1721411579078562000,3.25556201171875,0.11972958594560623,0.18417587876319885,-0.15836681425571442
1721411579091420400,3.26842041015625,0.16600263118743896,0.20525072515010834,-0.02779436856508255
1721411579104281600,3.281281494140625,0.23228150606155396,0.13805554807186127,0.10567969083786011
1721411579117140700,3.294140625,0.2929098904132843,0.016340645030140877,0.22342395782470703
1721411579129995800,3.306995849609375,0.3500257730484009,-0.09193521738052368,0.30344730615615845
1721411579142858500,3.3198583984375,0.37430769205093384,-0.13530665636062622,0.34636059403419495
1721411579155713800,3.3327138671875,0.30970868468284607,-0.15027284622192383,0.3323107063770294
1721411579168574500,3.345574462890625,0.1944078654050827,-0.12461651116609573,0.2519819140434265
1721411579181433300,3.358433349609375,0.0682641938328743,-0.017867809161543846,0.10567969083786011
1721411579194291500,3.37129150390625,-0.04535674303770065,0.10094548016786575,-0.08078692853450775
1721411579207149000,3.384149169921875,-0.13790282607078552,0.18967366218566895,-0.27779096364974976
1721411579220009500,3.397009521484375,-0.21960605680942535,0.22403483092784882,-0.44180828332901
1721411579232853000,3.40985302734375,-0.2984076738357544,0.22815817594528198,-0.5119050741195679
1721411579245742000,3.4227421875,-0.30925053358078003,0.20754146575927734,-0.5119050741195679
1721411579258580200,3.435580322265625,-0.21670444309711456,0.1635591685771942,-0.4657847583293915
1721411579271424500,3.448424560546875,-0.11453723162412643,0.05910121276974678,-0.3599523603916168
1721411579284291000,3.461291015625,-0.03497203439474106,-0.044287730008363724,-0.19822576642036438
1721411579297159700,3.47415966796875,0.03833179548382759,-0.11499538272619247,-0.042760565876960754
1721411579310017500,3.487017578125,0.0861319974064827,-0.12660181522369385,0.07452555745840073
1721411579322875400,3.49987548828125,0.08460483700037003,-0.12064588814973831,0.11224649101495743
1721411579335735000,3.512735107421875,0.02580905705690384,-0.09193521738052368,0.11759155988693237
1721411579348591400,3.52559130859375,-0.042760565876960754,-0.03680463135242462,0.10461067408323288
1721411579361468700,3.53846875,-0.10522153973579407,0.05100724846124649,0.0780380368232727
1721411579374324200,3.55132421875,-0.14416420459747314,0.11484266817569733,0.03497203439474106
1721411579387182800,3.564182861328125,-0.15577064454555511,0.12202033400535583,-0.03695734590291977
1721411579400041700,3.577041748046875,-0.16584990918636322,0.07223481684923172,-0.1111774742603302
1721411579412883700,3.5898837890625,-0.16539175808429718,0.00931569468230009,-0.12186761945486069
1721411579425746700,3.60274658203125,-0.12889257073402405,-0.04352414980530739,-0.07147123664617538
1721411579438603800,3.615603759765625,-0.08552113175392151,-0.0988074541091919,0.007024950347840786
1721411579451462400,3.62846240234375,-0.05054909735918045,-0.14569136500358582,0.08048149943351746
1721411579464321000,3.641321044921875,-0.01878410577774048,-0.1915062516927719,0.11133018881082535
1721411579477185500,3.654185546875,-0.016035212203860283,-0.22647829353809357,0.10170906037092209
1721411579490037000,3.667037109375,-0.04382958263158798,-0.24129177629947662,0.06872233748435974
1721411579502896600,3.679896728515625,-0.09224065393209457,-0.2174680233001709,0.013286318629980087
1721411579515766300,3.692766357421875,-0.13576480746269226,-0.17302757501602173,-0.05650503560900688
1721411579528611600,3.705611572265625,-0.18555031716823578,-0.1310305893421173,-0.10705413669347763
1721411579541472300,3.71847216796875,-0.25534167885780334,-0.09040805697441101,-0.10919216275215149
1721411579554332000,3.731331787109375,-0.3292563557624817,-0.06673702597618103,-0.0503963828086853
1721411579567188500,3.7441884765625,-0.37308594584465027,-0.0354301854968071,0.05360342562198639
1721411579580048400,3.75704833984375,-0.3597996234893799,0.004734205547720194,0.16798794269561768
1721411579592907000,3.769906982421875,-0.3251330256462097,0.031612277030944824,0.242513507604599
1721411579605759500,3.782759521484375,-0.3045163154602051,-0.0009162978967651725,0.2756529450416565
1721411579618625800,3.795625732421875,-0.30085113644599915,-0.06490442901849747,0.30634891986846924
1721411579631484200,3.808484130859375,-0.32391130924224854,-0.11713340878486633,0.3220787048339844
1721411579644340500,3.821340576171875,-0.32039880752563477,-0.11957687139511108,0.3378084897994995
1721411579657199600,3.83419970703125,-0.2716823220252991,-0.08888089656829834,0.3237585723400116
1721411579670058200,3.847058349609375,-0.18845193088054657,-0.07880161702632904,0.3039054572582245
1721411579682916600,3.85991650390625,-0.09544769674539566,-0.12522737681865692,0.3000875413417816
1721411579695775700,3.872775634765625,-0.04963280260562897,-0.21212296187877655,0.2825251817703247
1721411579708634000,3.885634033203125,-0.08307767659425735,-0.2715296149253845,0.2483167201280594
1721411579721487000,3.898487060546875,-0.15836681425571442,-0.22250767052173615,0.16600263118743896
1721411579734366000,3.911365966796875,-0.24816401302814484,-0.0708603709936142,0.027183502912521362
1721411579747222300,3.92422216796875,-0.3321579694747925,0.13637566566467285,-0.10445795953273773
1721411579760066800,3.93706689453125,-0.3799581825733185,0.294437050819397,-0.168751522898674
1721411579772929800,3.9499296875,-0.3706424832344055,0.3393356502056122,-0.1589776873588562
1721411579785789400,3.96278955078125,-0.3098613917827606,0.28298333287239075,-0.09376781433820724
1721411579798659300,3.975659423828125,-0.21365012228488922,0.15913039445877075,-0.0012217304902151227
1721411579811499500,3.98849951171875,-0.11972958594560623,0.02428189292550087,0.07437284290790558
1721411579824361200,4.001361328125,-0.02428189292550087,-0.0705549344420433,0.10613783448934555
1721411579837220600,4.014220703125,0.06154467165470123,-0.10995574295520782,0.0913243517279625
1721411579850078000,4.027077880859375,0.1293507218360901,-0.12522737681865692,0.027488935738801956
1721411579862934500,4.0399345703125,0.14767667651176453,-0.15057829022407532,-0.0780380368232727
1721411579875795500,4.05279541015625,0.08384125679731369,-0.1342376321554184,-0.18081611394882202
1721411579888654000,4.065654052734375,-0.04138612002134323,-0.07941248267889023,-0.26633724570274353
1721411579901509600,4.078509521484375,-0.1716531366109848,-0.007788531947880983,-0.3553708493709564
1721411579914385000,4.091385009765625,-0.26419922709465027,0.06887505948543549,-0.42348232865333557
1721411579927244300,4.104244384765625,-0.29275718331336975,0.1437060534954071,-0.41431936621665955
1721411579940086800,4.117086669921875,-0.26450464129447937,0.17898350954055786,-0.3142901659011841
1721411579952959500,4.12995947265625,-0.2148718535900116,0.18799377977848053,-0.13988813757896423
1721411579965827000,4.1428271484375,-0.154396191239357,0.1716531366109848,0.04688390716910362
1721411579978674400,4.15567431640625,-0.09025534242391586,0.10934487730264664,0.1547016203403473
1721411579991534000,4.1685341796875,-0.015882495790719986,0.058948494493961334,0.18005253374576569
1721411580004394000,4.18139404296875,0.06520986557006836,0.006261368747800589,0.15302173793315887
1721411580017258500,4.194258544921875,0.1316414624452591,-0.051312681287527084,0.13439035415649414
1721411580030098700,4.2070986328125,0.1794416606426239,-0.09697485715150833,0.13866640627384186
1721411580042977000,4.21997705078125,0.19685132801532745,-0.11010845750570297,0.11942415684461594
1721411580055811300,4.232811279296875,0.19349156320095062,-0.0884227454662323,0.06582073122262955
1721411580068664000,4.2456640625,0.17592918872833252,-0.06444628536701202,-0.015882495790719986
1721411580081525200,4.258525146484375,0.12140946835279465,-0.03222314268350601,-0.07742717117071152
1721411580094391800,4.271391845703125,0.04963280260562897,0.0010690141934901476,-0.12446379661560059
1721411580107240000,4.284239990234375,-0.001679879380390048,0.056352317333221436,-0.15561792254447937
1721411580120100900,4.297100830078125,-0.023518312722444534,0.09728029370307922,-0.192422553896904
1721411580132969700,4.3099697265625,-0.0074830991216003895,0.12278391420841217,-0.22632557153701782
1721411580145827000,4.3228271484375,0.02428189292550087,0.10735956579446793,-0.21991148591041565
1721411580158674000,4.335673828125,0.04612032696604729,0.06520986557006836,-0.17333301901817322
1721411580171546000,4.348546142578125,0.06551529467105865,0.01572977937757969,-0.13530665636062622
1721411580184401200,4.361401123046875,0.10415252298116684,0.024434609338641167,-0.09346238523721695
1721411580197260300,4.37426025390625,0.13057245314121246,0.05619960278272629,-0.060475658625364304
1721411580210119200,4.387119140625,0.11835514008998871,0.05604688450694084,-0.06551529467105865
1721411580222980400,4.39998046875,0.06963863968849182,0.05451972410082817,-0.08307767659425735
1721411580235853000,4.41285302734375,0.048716504126787186,0.08949175477027893,-0.07971791177988052
1721411580248707000,4.42570703125,0.07269296050071716,0.14645494520664215,-0.055283304303884506
1721411580261563000,4.43856298828125,0.11224649101495743,0.1927279829978943,-0.013591751456260681
1721411580274422300,4.45142236328125,0.152105450630188,0.17730364203453064,0.042760565876960754
1721411580287270700,4.464270751953125,0.194713294506073,0.10033461451530457,0.09697485715150833
1721411580300145400,4.4771455078125,0.22571471333503723,-0.026572637259960175,0.12202033400535583
1721411580312999400,4.48999951171875,0.2272418737411499,-0.1160643994808197,0.12828169763088226
1721411580325856800,4.502856689453125,0.22098049521446228,-0.1293507218360901,0.15745051205158234
1721411580338718200,4.51571826171875,0.18112154304981232,-0.07269296050071716,0.21899518370628357
1721411580351576000,4.528576171875,0.1466076523065567,0.04688390716910362,0.31062498688697815
1721411580364434400,4.541434326171875,0.1342376321554184,0.16783522069454193,0.3880521357059479
1721411580377266200,4.55426611328125,0.12629638612270355,0.2246456891298294,0.42302417755126953
1721411580390131500,4.56713134765625,0.14844025671482086,0.19089539349079132,0.42699480056762695
1721411580402989300,4.5799892578125,0.1699732542037964,0.09315694868564606,0.39706242084503174
1721411580415859500,4.592859375,0.17272214591503143,-0.06536258012056351,0.3197879493236542
1721411580428715000,4.605715087890625,0.14874568581581116,-0.2047925740480423,0.2165517359972
1721411580441573600,4.61857373046875,0.10384709388017654,-0.2874121069908142,0.1007927656173706
1721411580454438000,4.63143798828125,0.060933809727430344,-0.24419337511062622,-0.02871066704392433
1721411580467289300,4.644289306640625,0.01664607785642147,-0.05467243865132332,-0.09911288321018219
1721411580480148000,4.65714794921875,-0.0013744467869400978,0.16279558837413788,-0.11209376901388168
1721411580493029600,4.670029541015625,0.021838432177901268,0.3094032406806946,-0.0708603709936142
1721411580505878500,4.68287841796875,0.08857546001672745,0.31230485439300537,-0.01542434748262167
1721411580518737000,4.69573681640625,0.1814269721508026,0.2054034322500229,0.03573561832308769
1721411580531583500,4.70858349609375,0.2941316068172455,0.02474004216492176,0.08597928285598755
1721411580544452900,4.721452880859375,0.36682456731796265,-0.18646661937236786,0.13973543047904968
1721411580557298000,4.7342978515625,0.4282165467739105,-0.3842342495918274,0.1992947906255722
1721411580570159900,4.747159912109375,0.47937649488449097,-0.5132794976234436,0.2768746614456177
1721411580583006500,4.76000634765625,0.4764748811721802,-0.48426342010498047,0.3205515444278717
1721411580595879200,4.772879150390625,0.3995058834552765,-0.34697145223617554,0.2548835277557373
1721411580608735700,4.78573583984375,0.2825251817703247,-0.11560624837875366,0.09239336848258972
1721411580621593900,4.79859375,0.12889257073402405,0.09239336848258972,-0.15790866315364838
1721411580634452700,4.81145263671875,-0.03649919852614403,0.20463985204696655,-0.42149701714515686
1721411580647309000,4.82430908203125,-0.17318029701709747,0.2519819140434265,-0.593302845954895
1721411580660170800,4.837170654296875,-0.26801711320877075,0.26572638750076294,-0.640644907951355
1721411580673028600,4.850028564453125,-0.28909197449684143,0.2499966025352478,-0.5920811295509338
1721411580685885700,4.8628857421875,-0.23151792585849762,0.24678955972194672,-0.4795292317867279
1721411580698746000,4.87574609375,-0.10842858254909515,0.2635883390903473,-0.3300199508666992
1721411580711604500,4.8886044921875,0.03833179548382759,0.21868975460529327,-0.20906862616539001
1721411580724479500,4.9014794921875,0.1492038369178772,0.10216721147298813,-0.1212567538022995
1721411580737324500,4.914324462890625,0.20906862616539001,-0.05696318298578262,-0.03985895588994026
1721411580750197500,4.927197509765625,0.22113321721553802,-0.16325373947620392,0.02626720629632473
1721411580763051300,4.94005126953125,0.19547687470912933,-0.192422553896904,0.04795292019844055
1721411580775911000,4.952910888671875,0.14538592100143433,-0.15653422474861145,0.032681290060281754
1721411580788757200,4.96575732421875,0.07925976812839508,-0.07590000331401825,0.013591751456260681
1721411580801607700,4.978607666015625,0.021838432177901268,-0.0025961773935705423,-0.02626720629632473
1721411580814493700,4.99149365234375,-0.02535090781748295,0.05268712714314461,-0.096211276948452
1721411580827345200,5.00434521484375,-0.06902777403593063,0.08491026610136032,-0.1514945775270462
1721411580840185600,5.017185546875,-0.09697485715150833,0.09086620807647705,-0.1699732542037964
1721411580853051000,5.03005078125,-0.13240504264831543,0.07238753139972687,-0.1508837193250656
1721411580865905200,5.0429052734375,-0.14508049190044403,0.05910121276974678,-0.09498954564332962
1721411580878781200,5.05578125,-0.11270463466644287,0.050854530185461044,-0.032681290060281754
1721411580891653600,5.068653564453125,-0.05696318298578262,0.04764748737215996,0.01542434748262167
1721411580904487000,5.08148681640625,0.0027488935738801956,0.033597588539123535,0.033139441162347794
1721411580917355800,5.094355712890625,0.06154467165470123,0.00733038317412138,0.02779436856508255
1721411580930200600,5.10720068359375,0.09147707372903824,-0.06261368840932846,0.006261368747800589
1721411580943074300,5.12007421875,0.06017022579908371,-0.13775011897087097,0.0013744467869400978
1721411580955944400,5.1329443359375,0.02733621932566166,-0.1537853181362152,-0.0025961773935705423
1721411580968787200,5.145787109375,-0.006872233934700489,-0.12858712673187256,-0.02367102913558483
1721411580981640000,5.158639892578125,-0.03985895588994026,-0.07681630551815033,-0.041233405470848083
1721411580994509000,5.171509033203125,-0.05207626149058342,-0.046731192618608475,-0.05604688450694084
1721411581007363800,5.18436376953125,-0.0705549344420433,-0.04566217586398125,-0.04642575979232788
1721411581020195300,5.1971953125,-0.10491610318422318,-0.04092797264456749,-0.021380282938480377
1721411581033092600,5.210092529296875,-0.15561792254447937,-0.00855211354792118,0.027947084978222847
1721411581045938400,5.2229384765625,-0.1846340149641037,0.06750060617923737,0.08216137439012527
1721411581058784300,5.2357841796875,-0.1866193264722824,0.15577064454555511,0.11957687139511108
1721411581071646500,5.248646484375,-0.18096883594989777,0.20662516355514526,0.1414152979850769
1721411581084493800,5.261493896484375,-0.17470745742321014,0.16310101747512817,0.15012013912200928
1721411581097365500,5.274365478515625,-0.13759739696979523,0.05451972410082817,0.15317445993423462
1721411581110211800,5.2872119140625,-0.09300423413515091,-0.07696902006864548,0.16019940376281738
1721411581123082800,5.300082763671875,-0.07559457421302795,-0.16752979159355164,0.17516560852527618
1721411581135938000,5.31293798828125,-0.0884227454662323,-0.24633140861988068,0.14248432219028473
1721411581148798200,5.325798095703125,-0.09896016865968704,-0.2561052441596985,0.10216721147298813
1721411581161656000,5.338656005859375,-0.09666942805051804,-0.19318613409996033,0.09117163717746735
1721411581174515700,5.351515625,-0.11835514008998871,-0.07238753139972687,0.1270599663257599
1721411581187373300,5.364373291015625,-0.12034045159816742,0.0328340083360672,0.14614951610565186
1721411581200233000,5.37723291015625,-0.07757988572120667,0.07177666574716568,0.12828169763088226
1721411581213086000,5.3900859375,0.0019853119738399982,0.06627888232469559,0.10476338863372803
1721411581225955600,5.40295556640625,0.07712173461914062,0.01237002108246088,0.0679587572813034
1721411581238822100,5.415822265625,0.1010981947183609,-0.09025534242391586,0.03573561832308769
1721411581251677200,5.42867724609375,0.0809396430850029,-0.1921171247959137,0.020005837082862854
1721411581264538000,5.4415380859375,0.04444044828414917,-0.26481008529663086,0.04657847434282303
1721411581277395500,5.4543955078125,-0.001527163083665073,-0.25182920694351196,0.1287398487329483
1721411581290254800,5.4672548828125,-0.08704829961061478,-0.1241583600640297,0.2041817009449005
1721411581303114000,5.480114013671875,-0.15317445993423462,0.07147123664617538,0.2503020465373993
1721411581315974000,5.492973876953125,-0.17577648162841797,0.2370157092809677,0.2154827117919922
1721411581328830200,5.505830322265625,-0.1791362315416336,0.3214678466320038,0.14233160018920898
1721411581341691000,5.51869091796875,-0.154396191239357,0.3095559775829315,0.11209376901388168
1721411581354547500,5.53154736328125,-0.1440114825963974,0.20433442294597626,0.10644327104091644
1721411581367407000,5.544406982421875,-0.14706580340862274,0.06887505948543549,0.10812314599752426
1721411581380268500,5.5572685546875,-0.1085812970995903,-0.031154127791523933,0.09544769674539566
1721411581393124900,5.570124755859375,-0.02015855349600315,-0.05971207842230797,0.05742133408784866
1721411581405984800,5.58298486328125,0.08429940044879913,-0.06261368840932846,-0.005955935921519995
1721411581418834200,5.595834228515625,0.1508837193250656,-0.07437284290790558,-0.0708603709936142
1721411581431703000,5.608703125,0.16630806028842926,-0.09972374886274338,-0.1472185254096985
1721411581444555800,5.6215556640625,0.13408492505550385,-0.12171489745378494,-0.2168571650981903
1721411581457408500,5.634408447265625,0.10033461451530457,-0.11362093687057495,-0.2548835277557373
1721411581470280000,5.647280029296875,0.056352317333221436,-0.09453139454126358,-0.2687807083129883
1721411581483120000,5.6601201171875,0.007177666760981083,-0.07192938029766083,-0.24266621470451355
1721411581495982300,5.672982421875,-0.03726277872920036,-0.058795779943466187,-0.19562959671020508
1721411581508859600,5.685859619140625,-0.08414668589830399,-0.04948008432984352,-0.15485434234142303
1721411581521709600,5.69870947265625,-0.11636982858181,-0.02779436856508255,-0.11759155988693237
1721411581534562000,5.71156201171875,-0.11331550031900406,0.025503624230623245,-0.07391469180583954
1721411581547426600,5.724426513671875,-0.0933096632361412,0.08002334833145142,-0.026419922709465027
1721411581560270600,5.7372705078125,-0.07177666574716568,0.10201449692249298,0.005345070734620094
1721411581573132500,5.750132568359375,-0.06551529467105865,0.07788532227277756,0.01038470957428217
1721411581585991400,5.762991455078125,-0.06398813426494598,0.0403171069920063,-0.004123340360820293
1721411581598842600,5.775842529296875,-0.04199698567390442,0.028405234217643738,-0.0074830991216003895
1721411581611711500,5.78871142578125,-0.03329215571284294,0.022449297830462456,-0.018325956538319588
1721411581624567000,5.801567138671875,-0.046731192618608475,0.007788531947880983,-0.013591751456260681
1721411581637415700,5.814415771484375,-0.06383541971445084,-0.022449297830462456,0.013133603148162365
1721411581650277000,5.827277099609375,-0.06994406878948212,-0.03588833287358284,0.013133603148162365
1721411581663146000,5.84014599609375,-0.05497787147760391,-0.01038470957428217,-0.020922135561704636
1721411581676002000,5.853001953125,-0.04138612002134323,0.021074850112199783,-0.05849034711718559
1721411581688851700,5.865851806640625,-0.02932153269648552,0.05390885844826698,-0.06582073122262955
1721411581701714400,5.87871435546875,-0.01237002108246088,0.037110064178705215,-0.03878994286060333
1721411581714594600,5.891594482421875,0.015577063895761967,-0.008704829961061478,0.001679879380390048
1721411581727446500,5.904446533203125,0.049785517156124115,-0.060475658625364304,0.02779436856508255
1721411581740291800,5.917291748046875,0.06459899991750717,-0.09666942805051804,0.028099801391363144
1721411581753170000,5.930169921875,0.07681630551815033,-0.076052725315094,0.0074830991216003895
1721411581766022100,5.943022216796875,0.06841690838336945,-0.013133603148162365,-0.03176499158143997
1721411581778882600,5.955882568359375,0.07192938029766083,0.07391469180583954,-0.0708603709936142
1721411581791744300,5.968744140625,0.06948592513799667,0.12339477986097336,-0.09178250283002853
1721411581804601300,5.981601318359375,0.049785517156124115,0.12095131725072861,-0.0809396430850029
1721411581817461200,5.994461181640625,0.029932396486401558,0.09422596544027328,-0.02519819140434265
1721411581830319000,6.007319091796875,0.025656340643763542,0.07009678333997726,0.050243668258190155
1721411581843177000,6.020177001953125,0.04856378585100174,0.04489859566092491,0.10293079167604446
1721411581856036900,6.033036865234375,0.09575312584638596,0.027030786499381065,0.14844025671482086
1721411581868895500,6.0458955078125,0.1333213448524475,0.006719517521560192,0.18906278908252716
1721411581881753300,6.05875341796875,0.1316414624452591,-0.007635815534740686,0.24984388053417206
1721411581894613000,6.071613037109375,0.1339322030544281,-0.01725694350898266,0.2791654169559479
1721411581907468500,6.084468505859375,0.14355333149433136,-0.0003054326225537807,0.2767219543457031
1721411581920329700,6.097329833984375,0.14156801998615265,0.00809396430850029,0.23411411046981812
1721411581933187800,6.110187744140625,0.10537425428628922,-0.00427605677396059,0.192422553896904
1721411581946034000,6.123033935546875,0.050854530185461044,-0.027641652151942253,0.15546520054340363
1721411581958896000,6.135896240234375,0.009773843921720982,-0.03527746722102165,0.11362093687057495
1721411581971754200,6.148754150390625,0.001832595793530345,-0.04505131021142006,0.05772676691412926
1721411581984621300,6.161621337890625,0.011301007121801376,-0.07528914511203766,-0.031001411378383636
1721411581997469700,6.1744697265625,0.03191770985722542,-0.11636982858181,-0.11820242553949356
1721411582010345200,6.18734521484375,0.03130684420466423,-0.16111570596694946,-0.16554448008537292
1721411582023200300,6.2002001953125,0.021838432177901268,-0.1612684279680252,-0.19593502581119537
1721411582036043800,6.213043701171875,0.021532999351620674,-0.0910189226269722,-0.19624045491218567
1721411582048890400,6.225890380859375,0.041233405470848083,0.014355333521962166,-0.15256360173225403
1721411582061762600,6.238762451171875,0.08674286305904388,0.07040221989154816,-0.07925976812839508
1721411582074619100,6.251619140625,0.166460782289505,0.07223481684923172,0.015271631069481373
1721411582087477000,6.26447705078125,0.2721404731273651,0.020922135561704636,0.09682214260101318
1721411582100316000,6.27731591796875,0.3686571717262268,-0.06902777403593063,0.1394299864768982
1721411582113190400,6.2901904296875,0.3956879675388336,-0.14874568581581116,0.15577064454555511
1721411582126055000,6.303054931640625,0.35552358627319336,-0.1791362315416336,0.1699732542037964
1721411582138913800,6.315913818359375,0.30314189195632935,-0.1638645976781845,0.14508049190044403
1721411582151772200,6.328772216796875,0.25931230187416077,-0.07712173461914062,0.07864890247583389
1721411582164631000,6.341631103515625,0.20097467303276062,0.05421429127454758,-0.019547687843441963
1721411582177490000,6.354489990234375,0.13805554807186127,0.16249015927314758,-0.13729196786880493
1721411582190339800,6.36733984375,0.036041051149368286,0.21624629199504852,-0.22128593921661377
1721411582203210200,6.380210205078125,-0.08536841720342636,0.22739458084106445,-0.3052799105644226
1721411582216065300,6.393065185546875,-0.19074267148971558,0.23273965716362,-0.394008070230484
1721411582228924400,6.40592431640625,-0.21838432550430298,0.27840182185173035,-0.46242499351501465
1721411582241783000,6.418782958984375,-0.17669276893138885,0.28588494658470154,-0.49006664752960205
1721411582254641700,6.4316416015625,-0.08796459436416626,0.2672535479068756,-0.4331034719944
1721411582267498800,6.444498779296875,0.032070424407720566,0.20891591906547546,-0.31612277030944824
1721411582280359200,6.457359130859375,0.12629638612270355,0.15027284622192383,-0.17760907113552094
1721411582293215200,6.47021533203125,0.19379699230194092,0.11453723162412643,-0.062460970133543015
1721411582306094600,6.483094482421875,0.2483167201280594,0.058184914290905,0.007635815534740686
1721411582318947800,6.49594775390625,0.26313021779060364,-0.004581489134579897,0.02626720629632473
1721411582331809000,6.50880908203125,0.22403483092784882,-0.02535090781748295,0.044135015457868576
1721411582344665300,6.521665283203125,0.166460782289505,-0.018478672951459885,0.053297992795705795
1721411582357522400,6.5345224609375,0.0910189226269722,0.016035212203860283,0.019547687843441963
1721411582370367200,6.5473671875,0.0019853119738399982,0.08552113175392151,-0.035124752670526505
1721411582383245000,6.5602451171875,-0.06368270516395569,0.15271630883216858,-0.09437867999076843
1721411582396100000,6.57310009765625,-0.10170906037092209,0.20204368233680725,-0.10583240538835526
1721411582408960500,6.58596044921875,-0.14019356667995453,0.21151208877563477,-0.046731192618608475
1721411582421815800,6.59881591796875,-0.17104226350784302,0.17150041460990906,0.016340645030140877
1721411582434679800,6.6116796875,-0.1794416606426239,0.11209376901388168,0.034666601568460464
1721411582447534000,6.6245341796875,-0.13225232064723969,0.060475658625364304,-0.01817324012517929
1721411582460394000,6.63739404296875,-0.060475658625364304,0.01725694350898266,-0.10002918541431427
1721411582473239800,6.65023974609375,-0.0012217304902151227,-0.023518312722444534,-0.14553864300251007
1721411582486119200,6.663119140625,0.04535674303770065,-0.07147123664617538,-0.14248432219028473
1721411582498968800,6.67596875,0.06368270516395569,-0.1270599663257599,-0.11178833991289139
1721411582511826700,6.68882666015625,0.06841690838336945,-0.1898263692855835,-0.05925392732024193
1721411582524686800,6.701686767578125,0.06933320313692093,-0.24908030033111572,-0.00427605677396059
1721411582537546500,6.71454638671875,0.04948008432984352,-0.27458393573760986,0.040622539818286896
1721411582550370000,6.7273701171875,0.0064140851609408855,-0.2554943859577179,0.06688974797725677
1721411582563252700,6.740252685546875,-0.054825156927108765,-0.20983220636844635,0.06001751124858856
1721411582576109300,6.753109375,-0.11468994617462158,-0.15225815773010254,0.04581489413976669
1721411582588967200,6.76596728515625,-0.15042556822299957,-0.09682214260101318,0.051312681287527084
1721411582601825500,6.778825439453125,-0.18035796284675598,-0.05955936014652252,0.0887281745672226
1721411582614682600,6.7916826171875,-0.2223549485206604,-0.04764748737215996,0.14538592100143433
1721411582627545000,6.804545166015625,-0.24953845143318176,-0.050243668258190155,0.17547103762626648
1721411582640403200,6.8174033203125,-0.25793784856796265,-0.05146539583802223,0.16325373947620392
1721411582653260500,6.830260498046875,-0.23808473348617554,-0.05146539583802223,0.12095131725072861
1721411582666119700,6.84311962890625,-0.20097467303276062,-0.07299839705228806,0.08124507963657379
1721411582678976500,6.8559765625,-0.17638733983039856,-0.11514809727668762,0.08765916526317596
1721411582691849700,6.868849609375,-0.17898350954055786,-0.17928895354270935,0.13897185027599335
1721411582704708600,6.88170849609375,-0.18417587876319885,-0.2154827117919922,0.1973094791173935
1721411582717571000,6.894571044921875,-0.16279558837413788,-0.19226983189582825,0.23640485107898712
1721411582730425900,6.90742578125,-0.13744467496871948,-0.13408492505550385,0.24495697021484375
1721411582743283200,6.920283203125,-0.14126259088516235,-0.07483099400997162,0.22663100063800812
1721411582756127500,6.93312744140625,-0.17638733983039856,-0.03878994286060333,0.18478673696517944
1721411582768985300,6.9459853515625,-0.19547687470912933,-0.014813481830060482,0.11759155988693237
1721411582781846800,6.9588466796875,-0.1840231567621231,0.012980886735022068,0.054367005825042725
1721411582794706400,6.97170654296875,-0.16065755486488342,0.08200865983963013,-0.0003054326225537807
1721411582807564300,6.984564208984375,-0.15393804013729095,0.11713340878486633,-0.08674286305904388
1721411582820425200,6.99742529296875,-0.1774563491344452,0.13011430203914642,-0.18310685455799103
1721411582833282300,7.0102822265625,-0.20876319706439972,0.13958270847797394,-0.23335053026676178
1721411582846145000,7.02314501953125,-0.22892175614833832,0.1696678251028061,-0.1849394589662552
1721411582859039200,7.036039306640625,-0.19394971430301666,0.22449298202991486,-0.049785517156124115
1721411582871869000,7.048868896484375,-0.08536841720342636,0.2532036304473877,0.07299839705228806
1721411582884727300,7.061727294921875,0.0630718395113945,0.2203696370124817,0.14752395451068878
1721411582897564000,7.07456396484375,0.22571471333503723,0.13927727937698364,0.16768251359462738
1721411582910437400,7.087437255859375,0.37048977613449097,0.024129176512360573,0.15256360173225403
1721411582923288800,7.100288818359375,0.4460843503475189,-0.09758572280406952,0.1111774742603302
1721411582936153600,7.113153564453125,0.4486805200576782,-0.2197587788105011,0.026419922709465027
1721411582949011000,7.126010986328125,0.40485092997550964,-0.27580565214157104,-0.08460483700037003
1721411582961867300,7.1388671875,0.3153591752052307,-0.2246456891298294,-0.21334469318389893
1721411582974728400,7.151728515625,0.2025018334388733,-0.11652254313230515,-0.3378084897994995
1721411582987590400,7.16459033203125,0.08659014850854874,-0.003817907767370343,-0.41340306401252747
1721411583000456200,7.177456298828125,-0.023976460099220276,0.11041389405727386,-0.40515637397766113
1721411583013317400,7.1903173828125,-0.13011430203914642,0.17501288652420044,-0.3068070709705353
1721411583026155800,7.20315576171875,-0.19165897369384766,0.2002110779285431,-0.1408044397830963
1721411583039021800,7.216021728515625,-0.19792033731937408,0.16279558837413788,0.01970040425658226
1721411583051881500,7.228881591796875,-0.152105450630188,0.0858265683054924,0.12507465481758118
1721411583064738600,7.241738525390625,-0.06765332818031311,-0.01038470957428217,0.15546520054340363
1721411583077598200,7.25459814453125,0.024587325751781464,-0.12095131725072861,0.13729196786880493
1721411583090456600,7.26745654296875,0.10491610318422318,-0.22571471333503723,0.09941831976175308
1721411583103295700,7.280295654296875,0.12996158003807068,-0.27030786871910095,0.04993823543190956
1721411583116176600,7.2931767578125,0.09285151958465576,-0.26939156651496887,-0.027030786499381065
1721411583129032700,7.30603271484375,0.010842857882380486,-0.24358251690864563,-0.14477506279945374
1721411583141891300,7.318891357421875,-0.06520986557006836,-0.18127426505088806,-0.2747366428375244
1721411583154750500,7.33175048828125,-0.11484266817569733,-0.0910189226269722,-0.3666718602180481
1721411583167608600,7.344608642578125,-0.14309518039226532,0.004428773187100887,-0.40256020426750183
1721411583180470800,7.357470703125,-0.1595885455608368,0.08781187981367111,-0.3822489380836487
1721411583193342500,7.370342529296875,-0.16768251359462738,0.11194105446338654,-0.31551191210746765
1721411583206189800,7.38318994140625,-0.1563815027475357,0.10002918541431427,-0.2119702398777008
1721411583219051800,7.3960517578125,-0.1281289905309677,0.09422596544027328,-0.08277224004268646
1721411583231902200,7.408902099609375,-0.08170322328805923,0.09834930300712585,0.038179077208042145
1721411583244760300,7.42176025390625,-0.05207626149058342,0.10461067408323288,0.12003502249717712
1721411583257621000,7.43462109375,-0.02321287989616394,0.08674286305904388,0.17989981174468994
1721411583270478000,7.44747802734375,-0.006108652334660292,0.057879481464624405,0.19104810059070587
1721411583283337200,7.460337158203125,-0.02886338345706463,0.021380282938480377,0.1739438772201538
1721411583296196400,7.4731962890625,-0.04077525436878204,0.024892758578062057,0.13240504264831543
1721411583309050000,7.486050048828125,-0.043676864355802536,0.041691552847623825,0.04963280260562897
1721411583321913600,7.49891357421875,-0.046731192618608475,0.05742133408784866,-0.024587325751781464
1721411583334789000,7.5117890625,-0.05513058975338936,0.07177666574716568,-0.056352317333221436
1721411583347643600,7.5246435546875,-0.06383541971445084,0.08261952549219131,-0.03329215571284294
1721411583360503000,7.5375029296875,-0.05467243865132332,0.08643743395805359,0.025045474991202354
1721411583373334500,7.55033447265625,-0.013591751456260681,0.0806342139840126,0.07299839705228806
1721411583386209500,7.56320947265625,0.05192354694008827,0.07269296050071716,0.11621711403131485
1721411583399066000,7.576066162109375,0.11270463466644287,0.05375614017248154,0.16325373947620392
1721411583411924200,7.58892431640625,0.14767667651176453,0.022602014243602753,0.21594086289405823
1721411583424783000,7.601783203125,0.1362229436635971,0.014202617108821869,0.28267788887023926
1721411583437642800,7.614642822265625,0.11713340878486633,0.03222314268350601,0.3494149148464203
1721411583450500400,7.627500244140625,0.1241583600640297,0.04199698567390442,0.3810271918773651
1721411583463360300,7.6403603515625,0.13607023656368256,0.06017022579908371,0.39935314655303955
1721411583476237600,7.653237548828125,0.15241087973117828,0.07971791177988052,0.46150869131088257
1721411583489076000,7.666075927734375,0.1690569519996643,0.08475755155086517,0.5128213763237
1721411583501945600,7.678945556640625,0.18600846827030182,0.08002334833145142,0.527634859085083
1721411583514811600,7.691811767578125,0.2054034322500229,0.02932153269648552,0.43905940651893616
1721411583527666700,7.704666748046875,0.21242839097976685,-0.04703662544488907,0.25824329257011414
1721411583540526000,7.717526123046875,0.22708915174007416,-0.11850785464048386,0.034666601568460464
1721411583553366500,7.730366455078125,0.24663683772087097,-0.17180584371089935,-0.19715675711631775
1721411583566227700,7.743227783203125,0.2252565622329712,-0.17821992933750153,-0.38347065448760986
1721411583579086300,7.75608642578125,0.1748601794242859,-0.13988813757896423,-0.49846604466438293
1721411583591934000,7.768933837890625,0.1333213448524475,-0.056810468435287476,-0.5526803135871887
1721411583604795100,7.781795166015625,0.11453723162412643,0.01572977937757969,-0.5348125100135803
1721411583617664300,7.794664306640625,0.1108720451593399,0.04352414980530739,-0.4205807149410248
1721411583630522600,7.807522705078125,0.13744467496871948,-0.00931569468230009,-0.23411411046981812
1721411583643380000,7.8203798828125,0.21700987219810486,-0.043676864355802536,0.029474247246980667
1721411583656236300,7.833236328125,0.32879820466041565,-0.08628471940755844,0.23273965716362
1721411583669097500,7.846097412109375,0.42439863085746765,-0.12782354652881622,0.3481931984424591
1721411583681957000,7.85895703125,0.45234572887420654,-0.18799377977848053,0.3985895812511444
1721411583694811600,7.871811767578125,0.39385536313056946,-0.20784689486026764,0.3882048726081848
1721411583707692500,7.884692626953125,0.2848159074783325,-0.18448130786418915,0.2945897579193115
1721411583720546300,7.89754638671875,0.14676037430763245,-0.0936150997877121,0.12751811742782593
1721411583733406500,7.910406494140625,0.001679879380390048,0.021380282938480377,-0.08720101416110992
1721411583746239500,7.923239501953125,-0.12767083942890167,0.1339322030544281,-0.29077184200286865
1721411583759128800,7.93612890625,-0.21792617440223694,0.19364428520202637,-0.4537201523780823
1721411583771980300,7.948980224609375,-0.2574796974658966,0.21639901399612427,-0.5539020895957947
1721411583784837400,7.96183740234375,-0.24984388053417206,0.2102903574705124,-0.5745187401771545
1721411583797699600,7.974699462890625,-0.18325957655906677,0.17333301901817322,-0.5056437253952026
1721411583810548000,7.9875478515625,-0.10125091671943665,0.12079860270023346,-0.37079519033432007
1721411583823432400,8.000432373046875,-0.03405573591589928,0.04764748737215996,-0.1996002197265625
1721411583836272000,8.013272216796874,0.034666601568460464,-0.027947084978222847,-0.062460970133543015
1721411583849132000,8.026132080078124,0.096211276948452,-0.055283304303884506,0.029474247246980667
1721411583861976300,8.038976318359374,0.11881329119205475,-0.05268712714314461,0.09178250283002853
1721411583874839600,8.051839599609375,0.08674286305904388,-0.04566217586398125,0.12064588814973831
1721411583887700500,8.064700439453125,0.03527746722102165,-0.024129176512360573,0.1212567538022995
1721411583900555000,8.077554931640625,-0.029168816283345222,-0.012522737495601177,0.08521570265293121
1721411583913415200,8.090415283203125,-0.12522737681865692,0,0.038026362657547
1721411583926273800,8.103273681640625,-0.21624629199504852,0.03329215571284294,-0.03726277872920036
1721411583939132700,8.116132568359374,-0.2704605758190155,0.08720101416110992,-0.13286319375038147
1721411583952012500,8.129012451171874,-0.28466320037841797,0.13545936346054077,-0.21212296187877655
1721411583964858000,8.141858154296875,-0.26374107599258423,0.1609629988670349,-0.2376265823841095
1721411583977724000,8.154723876953126,-0.24694228172302246,0.1333213448524475,-0.204487144947052
1721411583990564000,8.167564208984375,-0.25213462114334106,0.05711590126156807,-0.12889257073402405
1721411584003426000,8.180426025390625,-0.23319780826568604,-0.006719517521560192,-0.02871066704392433
1721411584016283600,8.19328369140625,-0.16661348938941956,-0.024434609338641167,0.043676864355802536
1721411584029143800,8.206143798828125,-0.08781187981367111,-0.0009162978967651725,0.08338310569524765
1721411584041998000,8.218998046875,-0.030237829312682152,-0.05009094998240471,0.08903361111879349
1721411584054856400,8.2318564453125,-0.005192354787141085,-0.12736541032791138,0.07727445662021637
1721411584067708200,8.244708251953124,-0.008246680721640587,-0.21074850857257843,0.047189339995384216
1721411584080579800,8.257579833984375,-0.051770828664302826,-0.21960605680942535,0.017562376335263252
1721411584093437200,8.270437255859376,-0.10537425428628922,-0.17043140530586243,-0.02825251780450344
1721411584106296300,8.28329638671875,-0.14065171778202057,-0.08964447677135468,-0.08231408894062042
1721411584119150600,8.296150634765626,-0.17088955640792847,-0.04886921867728233,-0.1459967941045761
1721411584132014300,8.309014404296875,-0.19364428520202637,-0.0429132841527462,-0.18524488806724548
1721411584144882000,8.3218818359375,-0.22632557153701782,-0.06734789162874222,-0.20128010213375092
1721411584157729500,8.3347294921875,-0.2974913716316223,-0.05696318298578262,-0.18005253374576569
1721411584170586600,8.347586669921874,-0.3507893681526184,0.014049900695681572,-0.13347405195236206
1721411584183448300,8.3604482421875,-0.36132678389549255,0.0708603709936142,-0.07895433157682419
1721411584196302600,8.373302490234375,-0.34345898032188416,0.08552113175392151,-0.03985895588994026
1721411584209164800,8.386164794921875,-0.337044894695282,0.009468411095440388,-0.02871066704392433
1721411584222035700,8.39903564453125,-0.318566232919693,-0.07391469180583954,-0.0027488935738801956
1721411584234899700,8.411899658203126,-0.2710714638233185,-0.12553280591964722,0.03680463135242462
1721411584247768600,8.4247685546875,-0.2021963894367218,-0.10812314599752426,0.11301007121801376
1721411584260608300,8.437608154296875,-0.11010845750570297,-0.10247264802455902,0.18081611394882202
1721411584273469000,8.450468994140625,-0.03084869496524334,-0.1394299864768982,0.20601430535316467
1721411584286329000,8.4633291015625,0.05971207842230797,-0.2344195395708084,0.23884831368923187
1721411584299187000,8.47618701171875,0.10965031385421753,-0.31749722361564636,0.2932153046131134
1721411584312049000,8.489048828125,0.12171489745378494,-0.33307427167892456,0.32131510972976685
1721411584324908000,8.501907958984376,0.0630718395113945,-0.2802344262599945,0.2926044464111328
1721411584337765000,8.51476513671875,-0.039248090237379074,-0.15653422474861145,0.2096794992685318
1721411584350609400,8.527609375,-0.1365283876657486,-0.012064588256180286,0.08048149943351746
1721411584363470800,8.540470947265625,-0.20173825323581696,0.11438451707363129,-0.0555887371301651
1721411584376319700,8.55331982421875,-0.20876319706439972,0.19165897369384766,-0.12767083942890167
1721411584389191200,8.566191162109375,-0.17501288652420044,0.21731531620025635,-0.10537425428628922
1721411584402036700,8.57903662109375,-0.11331550031900406,0.19715675711631775,-0.024434609338641167
1721411584414907000,8.591906982421875,-0.03588833287358284,0.12767083942890167,0.08231408894062042
1721411584427753200,8.604753173828126,0.02580905705690384,0.03634648025035858,0.18784105777740479
1721411584440626400,8.61762646484375,0.07070764899253845,-0.0503963828086853,0.26771169900894165
1721411584453494800,8.630494873046874,0.12217304855585098,-0.10445795953273773,0.27809640765190125
1721411584466349800,8.643349853515625,0.16172657907009125,-0.11392636597156525,0.23350323736667633
1721411584479196700,8.65619677734375,0.16737708449363708,-0.11514809727668762,0.14355333149433136
1721411584492059600,8.6690595703125,0.1537853181362152,-0.08643743395805359,0.022907447069883347
1721411584504917000,8.6819169921875,0.12690725922584534,-0.05406157299876213,-0.12095131725072861
1721411584517787600,8.69478759765625,0.08429940044879913,-0.026572637259960175,-0.27351492643356323
1721411584530632200,8.707632080078126,0.028099801391363144,-0.021074850112199783,-0.4066835343837738
1721411584543496000,8.720495849609375,-0.004428773187100887,-0.00809396430850029,-0.46792277693748474
1721411584556352800,8.733352783203125,-0.0010690141934901476,0.0065668015740811825,-0.43997567892074585
1721411584569212200,8.746212158203125,0.022449297830462456,0.014049900695681572,-0.3387247920036316
1721411584582069200,8.7590693359375,0.06001751124858856,0.02168571576476097,-0.1814269721508026
1721411584594928000,8.77192822265625,0.0913243517279625,0.021991148591041565,-0.009621127508580685
1721411584607787000,8.784787109375,0.07437284290790558,-0.01542434748262167,0.12889257073402405
1721411584620654800,8.79765478515625,0.02733621932566166,-0.04352414980530739,0.20754146575927734
1721411584633502200,8.810502197265626,0.005497787147760391,-0.04245513305068016,0.1866193264722824
1721411584646360600,8.823360595703125,0.003817907767370343,-0.02321287989616394,0.09422596544027328
1721411584659225000,8.83622509765625,-0.0013744467869400978,0.016493361443281174,-0.026419922709465027
1721411584672082400,8.84908251953125,-0.008704829961061478,0.020005837082862854,-0.14569136500358582
1721411584684939500,8.861939453125,-0.022449297830462456,-0.024892758578062057,-0.22968533635139465
1721411584697789400,8.87478955078125,-0.012064588256180286,-0.06230825558304787,-0.2646573781967163
1721411584710659600,8.88765966796875,0.021074850112199783,-0.08032877743244171,-0.27519479393959045
1721411584723511800,8.90051171875,0.05757404863834381,-0.09697485715150833,-0.2541199326515198
1721411584736375000,8.913375,0.07269296050071716,-0.08597928285598755,-0.18829920887947083
1721411584749235700,8.926235595703124,0.08521570265293121,-0.057879481464624405,-0.09697485715150833
1721411584762091500,8.939091552734375,0.10613783448934555,-0.02626720629632473,-0.00809396430850029
1721411584774964500,8.951964599609376,0.13225232064723969,-0.001832595793530345,0.058948494493961334
1721411584787824400,8.964824462890626,0.14645494520664215,0.00427605677396059,0.10170906037092209
1721411584800669400,8.97766943359375,0.15103642642498016,0.00931569468230009,0.14065171778202057
1721411584813526300,8.9905263671875,0.15317445993423462,0.018936822190880775,0.15882496535778046
1721411584826401000,9.003401123046874,0.13973543047904968,0.038179077208042145,0.15745051205158234
1721411584839258600,9.016258544921875,0.11636982858181,0.06704246252775192,0.1547016203403473
1721411584852115200,9.029115234375,0.06643159687519073,0.07162395119667053,0.13469578325748444
1721411584864963300,9.04196337890625,0.02015855349600315,0.09422596544027328,0.11591167747974396
1721411584877828600,9.05482861328125,-0.004123340360820293,0.10491610318422318,0.0913243517279625
1721411584890695400,9.0676953125,0.003359758760780096,0.10735956579446793,0.07070764899253845
1721411584903543000,9.08054296875,0.013591751456260681,0.08918632566928864,0.04917465150356293
1721411584916407600,9.093407470703125,-0.016493361443281174,0.044135015457868576,0.025961773470044136
1721411584929275400,9.106275390625,-0.07208210229873657,0.025656340643763542,-0.01710422709584236
1721411584942126800,9.119126953125,-0.08292495459318161,0.07147123664617538,-0.06368270516395569
1721411584954987500,9.131987548828125,-0.04566217586398125,0.17928895354270935,-0.059864792972803116
1721411584967833900,9.144833740234375,0.013286318629980087,0.2499966025352478,0.00015271631127689034
1721411584980707300,9.157707275390624,0.08338310569524765,0.22999076545238495,0.08979719132184982
1721411584993560800,9.170560791015625,0.18448130786418915,0.1290452778339386,0.16035212576389313
1721411585006409700,9.18340966796875,0.2955060601234436,0.0403171069920063,0.22143864631652832
1721411585019284500,9.196284423828125,0.399200439453125,-0.00366519158706069,0.26404649019241333
1721411585032139500,9.209139404296875,0.47082439064979553,-0.014049900695681572,0.3084869384765625
1721411585045001200,9.222001220703126,0.5019785165786743,-0.0064140851609408855,0.36483925580978394
1721411585057848300,9.234848388671875,0.5002986192703247,-0.0039706239476799965,0.41340306401252747
1721411585070702000,9.2477021484375,0.470671683549881,-0.010231993161141872,0.44226643443107605
1721411585083562800,9.260562744140625,0.4352414906024933,-0.00931569468230009,0.45784351229667664
1721411585096420600,9.273420654296874,0.42042800784111023,0.023365596309304237,0.45753806829452515
1721411585109279500,9.286279541015626,0.4082106947898865,0.06429356336593628,0.42928555607795715
1721411585122138400,9.299138427734375,0.36880987882614136,0.054367005825042725,0.3449861407279968
1721411585134991400,9.311991455078125,0.3049744665622711,0.032070424407720566,0.25564709305763245
1721411585147857400,9.324857421875,0.2557998299598694,0.0328340083360672,0.16630806028842926
1721411585160728600,9.337728515625,0.23182335495948792,0.076052725315094,0.09896016865968704
1721411585173592000,9.350592041015625,0.2428189367055893,0.14385876059532166,0.058795779943466187
1721411585186431700,9.363431640625,0.2915354371070862,0.1817324161529541,0.04581489413976669
1721411585199290600,9.37629052734375,0.34513887763023376,0.15302173793315887,0.07208210229873657
1721411585212163300,9.389163330078125,0.36850446462631226,0.05772676691412926,0.11636982858181
1721411585225021000,9.40202099609375,0.36483925580978394,-0.058337632566690445,0.1713477075099945
1721411585237870000,9.4148701171875,0.33796119689941406,-0.13469578325748444,0.21624629199504852
1721411585250741500,9.427741455078126,0.22937989234924316,-0.13545936346054077,0.2102903574705124
1721411585263572700,9.44057275390625,0.05207626149058342,-0.07635815441608429,0.07208210229873657
1721411585276462600,9.453462646484375,-0.15012013912200928,0.06001751124858856,-0.1713477075099945
1721411585289313500,9.4663134765625,-0.2964223623275757,0.2921462953090668,-0.45204028487205505
1721411585302167300,9.479167236328125,-0.34284812211990356,0.46822822093963623,-0.6841690540313721
1721411585315033900,9.492033935546875,-0.308792382478714,0.5348125100135803,-0.8239045143127441
1721411585327910100,9.50491015625,-0.2301434874534607,0.4786129295825958,-0.860556423664093
1721411585340732200,9.517732177734375,-0.09697485715150833,0.3017674386501312,-0.7735081315040588
1721411585353608400,9.5306083984375,0.06001751124858856,0.03084869496524334,-0.5642867684364319
1721411585366463200,9.543463134765625,0.22082778811454773,-0.18677204847335815,-0.27977627515792847
1721411585379324700,9.55632470703125,0.30802878737449646,-0.28756481409072876,-0.013439035043120384
1721411585392182300,9.569182373046875,0.2926044464111328,-0.2874121069908142,0.19196440279483795
1721411585405043200,9.582043212890625,0.25564709305763245,-0.21380282938480377,0.3214678466320038
1721411585417891000,9.59489111328125,0.21410827338695526,-0.1365283876657486,0.4046982228755951
1721411585430763500,9.607763427734374,0.15103642642498016,-0.0607810914516449,0.446389764547348
1721411585443626800,9.620626708984375,0.05650503560900688,0.04856378585100174,0.446389764547348
1721411585456480000,9.63347998046875,-0.04932736977934837,0.11682797968387604,0.37690386176109314
1721411585469338400,9.64633837890625,-0.1264491081237793,0.13439035415649414,0.256868839263916
1721411585482184000,9.659183837890625,-0.17837265133857727,0.058795779943466187,0.10934487730264664
1721411585495059200,9.67205908203125,-0.206777885556221,-0.062460970133543015,-0.052381694316864014
1721411585507901700,9.684901611328126,-0.19379699230194092,-0.166460782289505,-0.21731531620025635
1721411585520777700,9.69777783203125,-0.1788308024406433,-0.2269364446401596,-0.3507893681526184
1721411585533622000,9.7106220703125,-0.17547103762626648,-0.21853704750537872,-0.44806966185569763
1721411585546475800,9.723475830078126,-0.17150041460990906,-0.19196440279483795,-0.48945578932762146
1721411585559327000,9.736326904296876,-0.16340644657611847,-0.14966198801994324,-0.4688390791416168
1721411585572198100,9.7491982421875,-0.14217889308929443,-0.13973543047904968,-0.39324450492858887
1721411585585055500,9.762055419921875,-0.12965615093708038,-0.17104226350784302,-0.27382034063339233
1721411585597914000,9.7749140625,-0.15332718193531036,-0.1927279829978943,-0.09514226019382477
1721411585610769400,9.787769287109375,-0.13790282607078552,-0.19975294172763824,0.08750644326210022
1721411585623630800,9.800630859375,-0.08078692853450775,-0.20402899384498596,0.2474004179239273
1721411585636489700,9.81348974609375,-0.016798794269561768,-0.2252565622329712,0.3491095006465912
1721411585649348600,9.8263486328125,0.042760565876960754,-0.25503623485565186,0.38148534297943115
1721411585662211300,9.83921142578125,0.09896016865968704,-0.2535090744495392,0.37950003147125244
1721411585675069000,9.85206884765625,0.1495092660188675,-0.256868839263916,0.3338378667831421
1721411585687928300,9.86492822265625,0.19120082259178162,-0.23594669997692108,0.30512720346450806
1721411585700795100,9.877795166015625,0.23090706765651703,-0.16432274878025055,0.3234531581401825
1721411585713653800,9.89065380859375,0.2393064647912979,-0.1134682223200798,0.31123584508895874
1721411585726512000,9.90351220703125,0.2168571650981903,-0.10766500234603882,0.2344195395708084
1721411585739370200,9.916370361328125,0.16203200817108154,-0.11789698898792267,0.09514226019382477
1721411585752218600,9.929218505859374,0.11682797968387604,-0.09407325088977814,-0.04764748737215996
1721411585765098500,9.942098388671875,0.12293662875890732,-0.05192354694008827,-0.19853121042251587
1721411585777954300,9.954954345703126,0.17898350954055786,-0.03588833287358284,-0.31841349601745605
1721411585790806800,9.967806884765626,0.26603180170059204,-0.08857546001672745,-0.34284812211990356
1721411585803668200,9.980668212890626,0.2984076738357544,-0.1667662113904953,-0.2243402600288391
1721411585816526000,9.993526123046875,0.30772337317466736,-0.2197587788105011,-0.024587325751781464
1721411585829382000,10.0063818359375,0.33200526237487793,-0.2557998299598694,0.13515393435955048
1721411585842244000,10.019244140625,0.30741792917251587,-0.22189679741859436,0.2721404731273651
1721411585855090200,10.032090087890625,0.27458393573760986,-0.08170322328805923,0.44287729263305664
1721411585867964700,10.044964599609376,0.28557950258255005,0.062460970133543015,0.6152940392494202
1721411585880834000,10.057833984375,0.318566232919693,0.11239920556545258,0.7153232097625732
1721411585893675800,10.07067578125,0.3533855378627777,0.043676864355802536,0.6878342628479004
1721411585906538500,10.08353857421875,0.4043927788734436,-0.09773843735456467,0.5441282391548157
1721411585919412500,10.09641259765625,0.43799036741256714,-0.24526239931583405,0.29794952273368835
1721411585932252000,10.109251953125,0.43967026472091675,-0.31444287300109863,0.013591751456260681
1721411585945112000,10.122112060546876,0.39614611864089966,-0.31383201479911804,-0.29336804151535034
1721411585957973000,10.134972900390625,0.34574973583221436,-0.22357667982578278,-0.5679519772529602
1721411585970831400,10.147831298828125,0.29886582493782043,-0.07528914511203766,-0.7183775305747986
1721411585983680800,10.1606806640625,0.21609358489513397,0.05115996301174164,-0.6771441102027893
1721411585996571400,10.1735712890625,0.10262536257505417,0.11713340878486633,-0.46929723024368286
1721411586009390800,10.186390869140626,0.033597588539123535,0.13148874044418335,-0.1391245573759079
1721411586022256600,10.199256591796875,0.009162978269159794,0.12064588814973831,0.2474004179239273
1721411586035113200,10.21211328125,-0.018936822190880775,0.09300423413515091,0.5354233980178833
1721411586047955200,10.224955078125,-0.08155050873756409,0.08781187981367111,0.7038694620132446
1721411586060833000,10.2378330078125,-0.17272214591503143,0.1235474944114685,0.7745771408081055
1721411586073685200,10.250685302734375,-0.2817615866661072,0.23289237916469574,0.7512115240097046
1721411586086547700,10.263547607421875,-0.36453384160995483,0.39187005162239075,0.6380487680435181
1721411586099406800,10.27640673828125,-0.3930917978286743,0.5221370458602905,0.47800204157829285
1721411586112266200,10.289266357421875,-0.36942076683044434,0.5705481171607971,0.2834414839744568
1721411586125122800,10.302122802734376,-0.3197879493236542,0.5041165351867676,0.09453139454126358
1721411586137975800,10.314975830078126,-0.2799290120601654,0.33139440417289734,-0.025045474991202354
1721411586150838800,10.3278388671875,-0.2246456891298294,0.1514945775270462,-0.0884227454662323
1721411586163699500,10.340699462890624,-0.12980885803699493,0.04444044828414917,-0.11514809727668762
1721411586176573700,10.35357373046875,-0.019394971430301666,0.001679879380390048,-0.15271630883216858
1721411586189415200,10.366415283203125,0.07391469180583954,-0.018325956538319588,-0.2028072625398636
1721411586202271200,10.379271240234376,0.1111774742603302,-0.0555887371301651,-0.24846944212913513
1721411586215137000,10.392136962890625,0.07742717117071152,-0.08857546001672745,-0.2742784917354584
1721411586227999000,10.4049990234375,0.015271631069481373,-0.08170322328805923,-0.2871066629886627
1721411586240849400,10.417849365234375,-0.017867809161543846,-0.008246680721640587,-0.304669052362442
1721411586253707800,10.430707763671874,-0.021532999351620674,0.07040221989154816,-0.34758231043815613
1721411586266571300,10.4435712890625,-0.02871066704392433,0.11026117950677872,-0.3927863538265228
1721411586279423500,10.456423583984375,-0.032070424407720566,0.1088867336511612,-0.41462478041648865
1721411586292308500,10.46930859375,-0.018936822190880775,0.058337632566690445,-0.36819902062416077
1721411586305160700,10.48216064453125,0.02932153269648552,0.015118914656341076,-0.26908615231513977
1721411586318016300,10.495016357421875,0.1235474944114685,0.012217304669320583,-0.17318029701709747
1721411586330878000,10.5078779296875,0.23167064785957336,0.031154127791523933,-0.12461651116609573
1721411586343738600,10.520738525390625,0.34406983852386475,0.0403171069920063,-0.13805554807186127
1721411586356592000,10.533592041015625,0.4356996417045593,0.038637228310108185,-0.13836097717285156
1721411586369455400,10.546455322265626,0.46334129571914673,0.03878994286060333,-0.09178250283002853
1721411586382285000,10.55928515625,0.4824308156967163,0.05345070734620094,-0.0455094613134861
1721411586395144700,10.572144775390624,0.5283984541893005,0.06352998316287994,-0.013439035043120384
1721411586408006700,10.585006591796875,0.5720753073692322,0.06505715101957321,0.013897184282541275
1721411586420884200,10.59788427734375,0.6010913848876953,0.06520986557006836,0.0529925599694252
1721411586433735000,10.61073486328125,0.619111955165863,0.07024950534105301,0.07024950534105301
1721411586446593300,10.62359326171875,0.619111955165863,0.0884227454662323,0.07269296050071716
1721411586459454000,10.636453857421875,0.5881105065345764,0.14263702929019928,0.08674286305904388
1721411586472312600,10.6493125,0.5546656250953674,0.23075434565544128,0.08979719132184982
1721411586485170200,10.662170166015626,0.517861008644104,0.3150537610054016,0.06490442901849747
1721411586498046000,10.6750458984375,0.4908302128314972,0.3790418803691864,0.04245513305068016
1721411586510902300,10.68790234375,0.5141957998275757,0.38637226819992065,0.03420845419168472
1721411586523759600,10.700759521484375,0.5496259927749634,0.33337971568107605,0.05543602257966995
1721411586536606500,10.7136064453125,0.5581781268119812,0.25732699036598206,0.1007927656173706
1721411586549465900,10.7264658203125,0.5774203538894653,0.21151208877563477,0.14233160018920898
1721411586562303000,10.739302978515624,0.6090326309204102,0.19853121042251587,0.1719585657119751
1721411586575176700,10.7521767578125,0.6430884003639221,0.1915062516927719,0.18325957655906677
1721411586588042000,10.7650419921875,0.6490443348884583,0.18784105777740479,0.1966986060142517
1721411586600901400,10.7779013671875,0.6307183504104614,0.17211128771305084,0.21731531620025635
1721411586613761800,10.79076171875,0.6159048676490784,0.1647808998823166,0.230448916554451
1721411586626618600,10.80361865234375,0.5974262356758118,0.20693060755729675,0.22892175614833832
1721411586639476700,10.816476806640624,0.5766568183898926,0.25641068816185,0.20066922903060913
1721411586652335900,10.8293359375,0.5623014569282532,0.28527405858039856,0.15913039445877075
1721411586665192200,10.842192138671875,0.5491678714752197,0.28878653049468994,0.12492194026708603
1721411586678049500,10.855049560546876,0.5132794976234436,0.2243402600288391,0.07360926270484924
1721411586690925600,10.867925537109375,0.470060795545578,0.1647808998823166,0.030695978552103043
1721411586703780900,10.88078076171875,0.46990808844566345,0.19013181328773499,0.033139441162347794
1721411586716639700,10.8936396484375,0.5151121020317078,0.2945897579193115,0.1014036312699318
1721411586729500000,10.9065,0.6065891981124878,0.38117989897727966,0.2041817009449005
1721411586742360600,10.919360595703125,0.6925684809684753,0.32498031854629517,0.3026837408542633
1721411586755220700,10.932220703125,0.6994407176971436,0.07467827945947647,0.35445454716682434
1721411586768061000,10.94506103515625,0.665232241153717,-0.20861047506332397,0.3865249752998352
1721411586780924400,10.95792431640625,0.5931501388549805,-0.25014930963516235,0.4138612151145935
1721411586793770500,10.9707705078125,0.5061018466949463,-0.06215553730726242,0.35292738676071167
1721411586806632400,10.983632568359376,0.4213443100452423,0.24678955972194672,0.24037547409534454
1721411586819491600,10.99649169921875,0.3500257730484009,0.5728389024734497,0.10980302840471268
1721411586832353000,11.00935302734375,0.3533855378627777,0.7675521969795227,0.04963280260562897
1721411586845224000,11.022223876953126,0.4411974251270294,0.7765624523162842,0.0529925599694252
1721411586858075600,11.03507568359375,0.5674937963485718,0.6177374720573425,0.08277224004268646
1721411586870936300,11.047936279296875,0.7121161818504333,0.4265366494655609,0.12736541032791138
1721411586883792400,11.06079248046875,0.8761335015296936,0.2643519341945648,0.16844609379768372
1721411586896652800,11.07365283203125,1.0288498401641846,0.14813482761383057,0.21303924918174744
1721411586909512700,11.0865126953125,1.1583532094955444,0.01237002108246088,0.2742784917354584
1721411586922371800,11.099371826171875,1.2446379661560059,-0.03649919852614403,0.342237263917923
1721411586935229000,11.11222900390625,1.2893837690353394,0.02428189292550087,0.36560285091400146
1721411586948078600,11.12507861328125,1.3312281370162964,0.19746218621730804,0.3643811047077179
1721411586960951000,11.137950927734375,1.3442089557647705,0.37659841775894165,0.3165809214115143
1721411586973803800,11.1508037109375,1.3113750219345093,0.4827362596988678,0.2393064647912979
1721411586986666000,11.163666015625,1.246165156364441,0.5268712639808655,0.14248432219028473
1721411586999524600,11.176524658203125,1.1665998697280884,0.5117523670196533,0.040622539818286896
1721411587012383500,11.189383544921874,1.067945122718811,0.44684791564941406,-0.0757472887635231
1721411587025240600,11.202240478515625,0.9969320893287659,0.40164390206336975,-0.1638645976781845
1721411587038092300,11.21509228515625,0.9656252264976501,0.4050036668777466,-0.2165517359972
1721411587050962000,11.2279619140625,0.9799805879592896,0.4558582007884979,-0.20922134816646576
1721411587063816200,11.240816162109375,1.034500241279602,0.4888449013233185,-0.1771509200334549
1721411587076677400,11.253677490234375,1.0868819952011108,0.45173484086990356,-0.14248432219028473
1721411587089535200,11.26653515625,1.0914634466171265,0.3672827184200287,-0.07651086896657944
1721411587102396000,11.27939599609375,1.0645854473114014,0.2945897579193115,-0.023060163483023643
1721411587115240200,11.292240234375,1.0282388925552368,0.2483167201280594,-0.0354301854968071
1721411587128104000,11.30510400390625,0.9851729273796082,0.21288654208183289,-0.10873401165008545
1721411587140975400,11.317975341796876,0.9517280459403992,0.2076941877603531,-0.18325957655906677
1721411587153827800,11.330827880859376,0.9378308653831482,0.2050980031490326,-0.266184538602829
1721411587166688300,11.343688232421876,0.9250026941299438,0.2122756689786911,-0.3234531581401825
1721411587179548000,11.3565478515625,0.9089674949645996,0.22540926933288574,-0.3248275816440582
1721411587192407000,11.369406982421875,0.8817839622497559,0.22052235901355743,-0.2874121069908142
1721411587205263600,11.382263671875,0.8591819405555725,0.2252565622329712,-0.2171625941991806
1721411587218114800,11.39511474609375,0.8483390808105469,0.27000242471694946,-0.12736541032791138
1721411587230995000,11.407994873046874,0.854905903339386,0.27611109614372253,-0.05314527451992035
1721411587243839000,11.4208388671875,0.8400924205780029,0.25793784856796265,-0.01924225501716137
1721411587256693200,11.433693359375,0.8124507665634155,0.19853121042251587,-0.03878994286060333
1721411587269559600,11.4465595703125,0.7727445363998413,0.17150041460990906,-0.07925976812839508
1721411587282422000,11.459422119140624,0.711963415145874,0.17959438264369965,-0.12247848510742188
1721411587295281400,11.472281494140624,0.6522513628005981,0.2154827117919922,-0.15851953625679016
1721411587308140300,11.485140380859375,0.6108652353286743,0.24648413062095642,-0.17730364203453064
1721411587321012500,11.498012451171874,0.5777258276939392,0.2620611786842346,-0.16661348938941956
1721411587333851100,11.51085107421875,0.5543602108955383,0.23900102078914642,-0.14492778480052948
1721411587346729200,11.523729248046875,0.5510004758834839,0.16401731967926025,-0.13377949595451355
1721411587359585500,11.53658544921875,0.5624541640281677,0.058795779943466187,-0.12370020896196365
1721411587372441600,11.549441650390625,0.5737552046775818,-0.04749477282166481,-0.10751228034496307
1721411587385299500,11.562299560546874,0.5861251950263977,-0.10308351367712021,-0.08765916526317596
1721411587398145800,11.575145751953125,0.5774203538894653,-0.10186178237199783,-0.0682641938328743
1721411587411024400,11.5880244140625,0.566119372844696,-0.06688974797725677,-0.06368270516395569
1721411587423877000,11.600877197265625,0.5682573914527893,-0.030543262138962746,-0.0503963828086853
1721411587436738300,11.61373828125,0.5752823352813721,-0.013591751456260681,-0.015118914656341076
1721411587449599000,11.626598876953125,0.578489363193512,-0.01114829070866108,0.02382374368607998
1721411587462449700,11.63944970703125,0.5871942043304443,-0.0377209298312664,0.023976460099220276
1721411587475296800,11.652296875,0.5838344693183899,-0.0679587572813034,0.0009162978967651725
1721411587488148500,11.6651484375,0.5488623976707458,-0.098502017557621,-0.022449297830462456
1721411587501022200,11.678022216796874,0.4807509481906891,-0.1036943718791008,-0.052228979766368866
1721411587513876200,11.690876220703124,0.41401392221450806,-0.06673702597618103,-0.11392636597156525
1721411587526724600,11.703724609375,0.3390302062034607,0.0027488935738801956,-0.2194533348083496
1721411587539598800,11.716598876953125,0.2405281960964203,0.12049316614866257,-0.3217732608318329
1721411587552456000,11.7294560546875,0.17577648162841797,0.2736676335334778,-0.40194934606552124
1721411587565315000,11.742315185546875,0.1716531366109848,0.3703370690345764,-0.4193589985370636
1721411587578163500,11.75516357421875,0.1918116807937622,0.38866302371025085,-0.35842517018318176
1721411587591035100,11.76803515625,0.2557998299598694,0.3202461004257202,-0.24434609711170197
1721411587603887900,11.780887939453125,0.34574973583221436,0.1589776873588562,-0.10797043144702911
1721411587616749800,11.793749755859375,0.43676865100860596,-0.029016099870204926,0.04184427112340927
1721411587629617200,11.8066171875,0.48579058051109314,-0.12767083942890167,0.204487144947052
1721411587642465000,11.819465087890626,0.4943426847457886,-0.12263119965791702,0.33108896017074585
1721411587655326700,11.83232666015625,0.4911356568336487,-0.05375614017248154,0.38927388191223145
1721411587668174000,11.845174072265625,0.4859432876110077,0.03940080851316452,0.3706424832344055
1721411587681062400,11.8580625,0.4726569950580597,0.11301007121801376,0.30222558975219727
1721411587693900800,11.87090087890625,0.4331034719944,0.1621847152709961,0.20311269164085388
1721411587706770400,11.8837705078125,0.38637226819992065,0.19685132801532745,0.09178250283002853
1721411587719623400,11.89662353515625,0.3445279896259308,0.20616702735424042,-0.012064588256180286
1721411587732475400,11.909475341796876,0.3225368559360504,0.17577648162841797,-0.11927144229412079
1721411587745355500,11.92235546875,0.3199406862258911,0.13805554807186127,-0.21273382008075714
1721411587758198300,11.9351982421875,0.3378084897994995,0.08857546001672745,-0.2672535479068756
1721411587771047200,11.948047119140625,0.3878994286060333,0.05268712714314461,-0.2483167201280594
1721411587783904800,11.96090478515625,0.447000652551651,0.029016099870204926,-0.16004669666290283
1721411587796774400,11.9737744140625,0.49098294973373413,0.02687807008624077,-0.033139441162347794
1721411587809632500,11.986632568359376,0.5400048494338989,0.040622539818286896,0.0731511116027832
1721411587822491100,11.9994912109375,0.5771149396896362,0.05910121276974678,0.13561208546161652
1721411587835350000,12.01235009765625,0.5707008838653564,0.07238753139972687,0.1621847152709961
1721411587848201000,12.025200927734375,0.5476406812667847,0.07101308554410934,0.1547016203403473
1721411587861071000,12.038071044921875,0.5186246037483215,0.06841690838336945,0.11423180252313614
1721411587873940000,12.05093994140625,0.48609602451324463,0.08506298810243607,0.060322944074869156
1721411587886798000,12.063798095703126,0.460897833108902,0.11743884533643723,0.0064140851609408855
1721411587899657500,12.076657470703125,0.41813725233078003,0.15225815773010254,-0.009926560334861279
1721411587912500500,12.08950048828125,0.3703370690345764,0.1797471046447754,-0.00809396430850029
1721411587925374000,12.1023740234375,0.33368512988090515,0.2025018334388733,-0.02428189292550087
1721411587938219300,12.11521923828125,0.304669052362442,0.2252565622329712,-0.06475171446800232
1721411587951079400,12.128079345703124,0.2718350291252136,0.25763240456581116,-0.0907134860754013
1721411587963937300,12.140937255859376,0.2509129047393799,0.26832255721092224,-0.08857546001672745
1721411587976797400,12.15379736328125,0.275347501039505,0.2588541507720947,-0.08460483700037003
1721411587989658400,12.166658447265625,0.3280346393585205,0.24358251690864563,-0.09010262042284012
1721411588002515200,12.17951513671875,0.3854559659957886,0.22571471333503723,-0.08338310569524765
1721411588015373800,12.192373779296876,0.41981714963912964,0.18967366218566895,-0.0780380368232727
1721411588028223700,12.2052236328125,0.44180828332901,0.15241087973117828,-0.07284568250179291
1721411588041093600,12.21809375,0.451582133769989,0.14767667651176453,-0.07284568250179291
1721411588053948700,12.23094873046875,0.44913867115974426,0.18020524084568024,-0.07895433157682419
1721411588066810400,12.243810302734374,0.4674646258354187,0.2154827117919922,-0.0959058403968811
1721411588079671000,12.256671142578124,0.4908302128314972,0.21441370248794556,-0.11270463466644287
1721411588092526800,12.26952685546875,0.5016731023788452,0.20234911143779755,-0.10399980843067169
1721411588105384700,12.282384765625,0.5163338780403137,0.16859880089759827,-0.07330382615327835
1721411588118234600,12.295234619140626,0.5404630303382874,0.14217889308929443,-0.03894266113638878
1721411588131106600,12.3081064453125,0.5600107312202454,0.1290452778339386,-0.02168571576476097
1721411588143960800,12.3209609375,0.5523748993873596,0.14828753471374512,-0.008399397134780884
1721411588156821500,12.333821533203125,0.5386304259300232,0.19898934662342072,0.005803219974040985
1721411588169681700,12.346681640625,0.5297728776931763,0.24373523890972137,0.0019853119738399982
1721411588182524000,12.35952392578125,0.5348125100135803,0.27641651034355164,-0.024892758578062057
1721411588195404500,12.372404541015625,0.5656611919403076,0.275347501039505,-0.05497787147760391
1721411588208260000,12.385260009765625,0.5815436840057373,0.2669481039047241,-0.05955936014652252
1721411588221119500,12.398119384765625,0.5681046843528748,0.2451096773147583,-0.046273041516542435
1721411588233988000,12.410988037109375,0.5742133259773254,0.25854870676994324,-0.04382958263158798
1721411588246843000,12.4238427734375,0.5962044596672058,0.2877175211906433,-0.06918048858642578
1721411588259707100,12.43670703125,0.6160575747489929,0.29993483424186707,-0.10552696883678436
1721411588272565800,12.449565673828126,0.6458373069763184,0.2782491147518158,-0.1488984078168869
1721411588285410000,12.46241015625,0.6692028641700745,0.26145032048225403,-0.15714508295059204
1721411588298276000,12.475276123046875,0.7082982659339905,0.23518311977386475,-0.14935655891895294
1721411588311142100,12.48814208984375,0.7399105429649353,0.20265454053878784,-0.12217304855585098
1721411588323986700,12.500986572265624,0.7568620443344116,0.18478673696517944,-0.08429940044879913
1721411588336849200,12.51384912109375,0.7567093372344971,0.16661348938941956,-0.05742133408784866
1721411588349708000,12.5267080078125,0.7322747111320496,0.14706580340862274,-0.04795292019844055
1721411588362567200,12.539567138671876,0.7031059265136719,0.13118331134319305,-0.0529925599694252
1721411588375437000,12.55243701171875,0.674089789390564,0.10308351367712021,-0.07513642311096191
1721411588388281000,12.565281005859376,0.6317873597145081,0.05803219974040985,-0.09865473955869675
1721411588401157400,12.578157470703125,0.535881519317627,0.02229658141732216,-0.12629638612270355
1721411588414009300,12.59100927734375,0.41630467772483826,0.03848451003432274,-0.1495092660188675
1721411588426868200,12.6038681640625,0.29764407873153687,0.11743884533643723,-0.17043140530586243
1721411588439725600,12.6167255859375,0.22510384023189545,0.21853704750537872,-0.1690569519996643
1721411588452589800,12.62958984375,0.20983220636844635,0.26679539680480957,-0.12308934330940247
1721411588465448000,12.642447998046874,0.2324342280626297,0.22479841113090515,-0.03634648025035858
1721411588478295600,12.655295654296875,0.28328874707221985,0.11514809727668762,0.06551529467105865
1721411588491166500,12.66816650390625,0.3501785099506378,-0.001679879380390048,0.1589776873588562
1721411588504005400,12.68100537109375,0.4124867618083954,-0.09789115190505981,0.20845776796340942
1721411588516870400,12.693870361328125,0.44196099042892456,-0.15332718193531036,0.2223549485206604
1721411588529729300,12.706729248046875,0.4138612151145935,-0.1595885455608368,0.2220495194196701
1721411588542580700,12.719580810546875,0.346818745136261,-0.14798210561275482,0.20433442294597626
1721411588555447600,12.732447509765626,0.2664899528026581,-0.12079860270023346,0.15836681425571442
1721411588568293000,12.745293212890624,0.182648703455925,-0.10934487730264664,0.10644327104091644
1721411588581168000,12.758168212890626,0.08429940044879913,-0.06765332818031311,0.034666601568460464
1721411588594020900,12.771020751953126,-0.04214970022439957,-0.002138028386980295,-0.060475658625364304
1721411588606883800,12.7838837890625,-0.17470745742321014,0.06108652427792549,-0.15332718193531036
1721411588619741200,12.7967412109375,-0.280539870262146,0.13759739696979523,-0.2373211532831192
1721411588632598300,12.809598388671875,-0.3423899710178375,0.1963931769132614,-0.3171917796134949
1721411588645459700,12.822459716796875,-0.3640756905078888,0.23136521875858307,-0.36132678389549255
1721411588658307800,12.835307861328126,-0.33735033869743347,0.25442537665367126,-0.3585779070854187
1721411588671180000,12.848179931640624,-0.26190847158432007,0.2562579810619354,-0.3335324227809906
1721411588684034000,12.861033935546875,-0.15454891324043274,0.21105393767356873,-0.2909245789051056
1721411588696879000,12.873879150390625,-0.04245513305068016,0.12965615093708038,-0.22632557153701782
1721411588709774300,12.8867744140625,0.06215553730726242,0.03848451003432274,-0.13729196786880493
1721411588722604000,12.89960400390625,0.1472185254096985,-0.03588833287358284,-0.05115996301174164
1721411588735476700,12.912476806640624,0.1771509200334549,-0.0633772686123848,0.014966198243200779
1721411588748333800,12.925333740234375,0.14126259088516235,-0.03695734590291977,0.06444628536701202
1721411588761193000,12.93819287109375,0.08918632566928864,0.05696318298578262,0.08796459436416626
1721411588774048000,12.951048095703126,0.055741455405950546,0.16920967400074005,0.07757988572120667
1721411588786925000,12.963925048828125,0.02886338345706463,0.24037547409534454,0.050243668258190155
1721411588799765200,12.97676513671875,0.005955935921519995,0.2451096773147583,0.021991148591041565
1721411588812628700,12.989628662109375,-0.016798794269561768,0.20372356474399567,-0.00366519158706069
1721411588825499600,13.002499755859375,-0.03481931984424591,0.1563815027475357,-0.015882495790719986
1721411588838342700,13.0153427734375,-0.038026362657547,0.1212567538022995,-0.043676864355802536
1721411588851201500,13.028201416015625,-0.02672535367310047,0.10690141469240189,-0.07040221989154816
1721411588864074200,13.04107421875,-0.025503624230623245,0.11652254313230515,-0.07040221989154816
1721411588876926700,13.0539267578125,-0.0354301854968071,0.11285735666751862,-0.05955936014652252
1721411588889809400,13.066809326171875,-0.03527746722102165,0.10797043144702911,-0.06429356336593628
1721411588902645800,13.079645751953125,-0.02886338345706463,0.0959058403968811,-0.09346238523721695
1721411588915492900,13.092492919921876,-0.02474004216492176,0.06444628536701202,-0.1371392458677292
1721411588928358100,13.105358154296875,-0.013286318629980087,0.033139441162347794,-0.16249015927314758
1721411588941230300,13.118230224609375,-0.006872233934700489,-0.014049900695681572,-0.17562375962734222
1721411588954089700,13.13108984375,-0.016340645030140877,-0.058795779943466187,-0.17073683440685272
1721411588966911000,13.143910888671876,-0.0455094613134861,-0.09407325088977814,-0.16844609379768372
1721411588979792600,13.156792724609375,-0.09193521738052368,-0.09926560521125793,-0.16279558837413788
1721411588992647400,13.1696474609375,-0.13118331134319305,-0.08261952549219131,-0.16203200817108154
1721411589005507600,13.182507568359375,-0.14935655891895294,-0.06948592513799667,-0.17211128771305084
1721411589018368500,13.195368408203125,-0.144622340798378,-0.06948592513799667,-0.16111570596694946
1721411589031225600,13.2082255859375,-0.11789698898792267,-0.10201449692249298,-0.13148874044418335
1721411589044086300,13.221086181640626,-0.09254608303308487,-0.1537853181362152,-0.07880161702632904
1721411589056944400,13.2339443359375,-0.07208210229873657,-0.20555615425109863,-0.012675453908741474
1721411589069802500,13.246802490234375,-0.06872233748435974,-0.2454151064157486,0.03237585723400116
1721411589082662100,13.259662109375,-0.09086620807647705,-0.251676470041275,0.058948494493961334
1721411589095518700,13.272518798828125,-0.1241583600640297,-0.21792617440223694,0.0731511116027832
1721411589108379100,13.285379150390625,-0.1342376321554184,-0.1647808998823166,0.08017606288194656
1721411589121238000,13.298238037109375,-0.10781771689653397,-0.10781771689653397,0.10461067408323288
1721411589134097000,13.311096923828124,-0.04398229718208313,-0.07223481684923172,0.1768454909324646
1721411589146956000,13.3239560546875,0.013897184282541275,-0.11407908797264099,0.2773328125476837
1721411589159815200,13.336815185546875,0.01542434748262167,-0.17562375962734222,0.39675697684288025
1721411589172674000,13.349674072265625,0.0064140851609408855,-0.25305092334747314,0.4954117238521576
1721411589185532400,13.362532470703124,0.01710422709584236,-0.2915354371070862,0.5540547966957092
1721411589198392800,13.375392822265624,-0.012217304669320583,-0.30741792917251587,0.5635231733322144
1721411589211250200,13.388250244140625,-0.0806342139840126,-0.2886338233947754,0.555429220199585
1721411589224108300,13.4011083984375,-0.1768454909324646,-0.24816401302814484,0.5093088746070862
1721411589236968000,13.413968017578124,-0.29474249482154846,-0.18127426505088806,0.4190535545349121
1721411589249827000,13.4268271484375,-0.37827831506729126,-0.11301007121801376,0.29275718331336975
1721411589262686000,13.43968603515625,-0.44180828332901,-0.0555887371301651,0.13988813757896423
1721411589275556000,13.45255615234375,-0.4735732674598694,-0.025656340643763542,0.0007635815418325365
1721411589288401400,13.4654013671875,-0.46043968200683594,-0.03298672288656235,-0.09636399149894714
1721411589301270300,13.478270263671876,-0.4309654235839844,-0.058184914290905,-0.09834930300712585
1721411589314133800,13.4911337890625,-0.35842517018318176,-0.0757472887635231,-0.01970040425658226
1721411589326992000,13.503991943359376,-0.2539672255516052,-0.09911288321018219,0.0555887371301651
1721411589339853800,13.516853759765626,-0.1615738570690155,-0.11774427443742752,0.11621711403131485
1721411589352711400,13.52971142578125,-0.08368854224681854,-0.13897185027599335,0.14996741712093353
1721411589365546200,13.542546142578125,-0.022602014243602753,-0.16035212576389313,0.14813482761383057
1721411589378422500,13.555422607421875,-0.004886921960860491,-0.18814650177955627,0.11071932315826416
1721411589391291000,13.568290771484374,-0.03955352306365967,-0.21380282938480377,0.038637228310108185
1721411589404133400,13.58113330078125,-0.10674870014190674,-0.22892175614833832,-0.07024950534105301
1721411589416995800,13.593995849609374,-0.16554448008537292,-0.2099849283695221,-0.19257527589797974
1721411589429853400,13.606853515625,-0.2073887437582016,-0.18738290667533875,-0.3013092875480652
1721411589442714000,13.619714111328125,-0.235030397772789,-0.14782938361167908,-0.37339138984680176
1721411589455584000,13.632583984375,-0.25442537665367126,-0.11881329119205475,-0.399200439453125
1721411589468423700,13.645423583984375,-0.2788599729537964,-0.11056660860776901,-0.3995058834552765
1721411589481288000,13.658287841796875,-0.3130684494972229,-0.1241583600640297,-0.40103304386138916
1721411589494146800,13.671146728515625,-0.33658674359321594,-0.1290452778339386,-0.3562871515750885
1721411589507004000,13.68400390625,-0.3205515444278717,-0.09865473955869675,-0.2600758671760559
1721411589519864000,13.696864013671876,-0.2669481039047241,-0.06185010448098183,-0.14294247329235077
1721411589532723500,13.709723388671875,-0.1944078654050827,-0.058948494493961334,-0.059406645596027374
1721411589545571600,13.722571533203125,-0.09712757170200348,-0.08475755155086517,-0.014508049935102463
1721411589558443800,13.73544384765625,-0.02367102913558483,-0.164170041680336,0.009621127508580685
1721411589571294000,13.7482939453125,-0.014813481830060482,-0.25961771607398987,0.025656340643763542
1721411589584158000,13.761157958984375,-0.029168816283345222,-0.30573806166648865,0.02687807008624077
1721411589597031400,13.774031494140624,-0.05497787147760391,-0.2756529450416565,0.018020525574684143
1721411589609873000,13.786872802734376,-0.09514226019382477,-0.20570887625217438,-0.02519819140434265
1721411589622735600,13.799735595703124,-0.13301590085029602,-0.11178833991289139,-0.06841690838336945
1721411589635595500,13.812595458984376,-0.16019940376281738,-0.026114489883184433,-0.0933096632361412
1721411589648452000,13.8254521484375,-0.19715675711631775,0.023365596309304237,-0.08521570265293121
1721411589661312500,13.8383125,-0.2292271852493286,0.04245513305068016,-0.04917465150356293
1721411589674168600,13.85116845703125,-0.2370157092809677,0.04841107130050659,-0.009162978269159794
1721411589687031300,13.86403125,-0.2203696370124817,0.05711590126156807,0.03237585723400116
1721411589699905300,13.8769052734375,-0.19654589891433716,0.06582073122262955,0.08735372871160507
1721411589712757500,13.889757568359375,-0.1690569519996643,0.09025534242391586,0.1411098688840866
1721411589725615600,13.90261572265625,-0.14492778480052948,0.09636399149894714,0.1644754707813263
1721411589738486300,13.915486328125,-0.1362229436635971,0.09162978827953339,0.1644754707813263
1721411589751319600,13.928319580078124,-0.11682797968387604,0.11468994617462158,0.15622878074645996
1721411589764183600,13.94118359375,-0.08017606288194656,0.15134187042713165,0.13454307615756989
1721411589777041700,13.954041748046874,-0.036041051149368286,0.18051068484783173,0.10934487730264664
1721411589789901600,13.966901611328124,-0.0003054326225537807,0.18081611394882202,0.0757472887635231
1721411589802760400,13.979760498046875,0.009773843921720982,0.15913039445877075,0.0455094613134861
1721411589815620400,13.992620361328125,0.013897184282541275,0.12767083942890167,0.020005837082862854
1721411589828478500,14.005478515625,0.025045474991202354,0.11071932315826416,0.00809396430850029
1721411589841335600,14.01833544921875,0.05406157299876213,0.1267545372247696,0.024129176512360573
1721411589854199600,14.031199462890624,0.09392052888870239,0.1595885455608368,0.05115996301174164
1721411589867071500,14.044071533203125,0.13026700913906097,0.1647808998823166,0.08445212244987488
1721411589879911200,14.0569111328125,0.15683965384960175,0.14553864300251007,0.11759155988693237
1721411589892789000,14.0697890625,0.1739438772201538,0.11194105446338654,0.1495092660188675
1721411589905636400,14.08263623046875,0.1774563491344452,0.0780380368232727,0.17027868330478668
1721411589918505500,14.09550537109375,0.1765400618314743,0.04902193695306778,0.1667662113904953
1721411589931362300,14.1083623046875,0.16584990918636322,0.03436116874217987,0.13988813757896423
1721411589944218400,14.12121826171875,0.128434419631958,0.02076941914856434,0.10064005106687546
1721411589957064200,14.134064208984375,0.076052725315094,0.026419922709465027,0.07330382615327835
1721411589969926400,14.146926513671875,0.023365596309304237,0.06841690838336945,0.08109235763549805
1721411589982781000,14.159781005859376,-0.001679879380390048,0.12400564551353455,0.10751228034496307
1721411589995645400,14.1726455078125,0.005345070734620094,0.14340060949325562,0.1342376321554184
1721411590008490500,14.185490478515625,0.04703662544488907,0.1036943718791008,0.13729196786880493
1721411590021366800,14.19836669921875,0.12110403180122375,0.01710422709584236,0.09453139454126358
1721411590034219500,14.211219482421875,0.21731531620025635,-0.05971207842230797,0.04337143152952194
1721411590047081000,14.2240810546875,0.30375275015830994,-0.15225815773010254,-0.021074850112199783
1721411590059933700,14.23693359375,0.31352660059928894,-0.27809640765190125,-0.08384125679731369
1721411590072798000,14.2497978515625,0.26053401827812195,-0.3376557528972626,-0.12446379661560059
1721411590085656600,14.262656494140625,0.16752979159355164,-0.2681698501110077,-0.14752395451068878
1721411590098514400,14.275514404296874,0.055741455405950546,-0.11301007121801376,-0.14782938361167908
1721411590111374800,14.288374755859374,-0.03329215571284294,0.06918048858642578,-0.12263119965791702
1721411590124234500,14.301234375,-0.08704829961061478,0.18249599635601044,-0.06261368840932846
1721411590137092000,14.314092041015625,-0.08781187981367111,0.19226983189582825,0.016340645030140877
1721411590149951500,14.326951416015625,-0.061391957104206085,0.128434419631958,0.09712757170200348
1721411590162810000,14.33981005859375,-0.038637228310108185,0.06322455406188965,0.18020524084568024
1721411590175669200,14.352669189453126,-0.013133603148162365,0.02122756652534008,0.21838432550430298
1721411590188528400,14.3655283203125,0.0027488935738801956,0.028557950630784035,0.2099849283695221
1721411590201391400,14.378391357421876,0.006719517521560192,0.06001751124858856,0.16249015927314758
1721411590214230800,14.391230712890625,-0.0013744467869400978,0.1082758679986,0.09651670604944229
1721411590227129900,14.4041298828125,-0.012980886735022068,0.1492038369178772,0.01114829070866108
1721411590239976400,14.4169765625,-0.014966198243200779,0.20112738013267517,-0.07040221989154816
1721411590252837400,14.42983740234375,0.009773843921720982,0.23273965716362,-0.12263119965791702
1721411590265660400,14.442660400390626,0.07437284290790558,0.23075434565544128,-0.11224649101495743
1721411590278553300,14.45555322265625,0.16829337179660797,0.17211128771305084,-0.062460970133543015
1721411590291421200,14.468421142578125,0.25366178154945374,0.06505715101957321,0.005650503560900688
1721411590304266800,14.481266845703125,0.31322115659713745,-0.04199698567390442,0.09056077152490616
1721411590317130500,14.494130615234376,0.34544429183006287,-0.09010262042284012,0.18341228365898132
1721411590329990400,14.506990478515625,0.3706424832344055,-0.11041389405727386,0.24465152621269226
1721411590342844700,14.5198447265625,0.38148534297943115,-0.13454307615756989,0.27030786871910095
1721411590355693600,14.532693603515625,0.34956762194633484,-0.10094548016786575,0.27840182185173035
1721411590368556300,14.545556396484375,0.2776382565498352,-0.04459316283464432,0.2422080636024475
1721411590381420500,14.558420654296874,0.1690569519996643,0.04535674303770065,0.18127426505088806
1721411590394286000,14.5712861328125,0.03527746722102165,0.10720685124397278,0.08720101416110992
1721411590407136300,14.58413623046875,-0.08689557760953903,0.12079860270023346,-0.032070424407720566
1721411590420002800,14.5970029296875,-0.16249015927314758,0.09483683109283447,-0.1592831164598465
1721411590432862200,14.6098623046875,-0.19425514340400696,0.06551529467105865,-0.27259862422943115
1721411590445717800,14.6227177734375,-0.20784689486026764,0.032681290060281754,-0.36880987882614136
1721411590458602200,14.635602294921876,-0.2278527319431305,0.003359758760780096,-0.43829581141471863
1721411590471429000,14.64842919921875,-0.22281309962272644,0.008246680721640587,-0.4564690589904785
1721411590484269600,14.66126953125,-0.17073683440685272,0.04245513305068016,-0.43539419770240784
1721411590497145300,14.674145263671875,-0.07712173461914062,0.029932396486401558,-0.379652738571167
1721411590509994000,14.686993896484376,0.031154127791523933,-0.07208210229873657,-0.2893974184989929
1721411590522862300,14.6998623046875,0.07147123664617538,-0.22892175614833832,-0.19608774781227112
1721411590535720200,14.71272021484375,0.05268712714314461,-0.3197879493236542,-0.09743300825357437
1721411590548567600,14.725567626953126,0.008857546374201775,-0.2860376536846161,-0.0019853119738399982
1721411590561439700,14.738439697265624,-0.06536258012056351,-0.18249599635601044,0.03955352306365967
1721411590574299100,14.751299072265626,-0.1293507218360901,-0.06811147183179855,0.026419922709465027
1721411590587155200,14.7641552734375,-0.1699732542037964,0.06459899991750717,0.0024434609804302454
1721411590600017700,14.777017578125,-0.20784689486026764,0.13454307615756989,-0.03695734590291977
1721411590612870400,14.789870361328125,-0.24205535650253296,0.14874568581581116,-0.04963280260562897
1721411590625732900,14.80273291015625,-0.26022860407829285,0.1160643994808197,-0.035124752670526505
1721411590638591700,14.815591796875,-0.2528982162475586,0.05314527451992035,-0.01542434748262167
1721411590651439400,14.828439453125,-0.22098049521446228,0.003817907767370343,0.007024950347840786
1721411590664312000,14.84131201171875,-0.1563815027475357,-0.05619960278272629,0.04077525436878204
1721411590677173800,14.854173828125,-0.08827003091573715,-0.10155634582042694,0.09392052888870239
1721411590690025200,14.867025146484375,-0.027488935738801956,-0.12889257073402405,0.14813482761383057
1721411590702886000,14.879885986328125,0.04795292019844055,-0.14049901068210602,0.17562375962734222
1721411590715760400,14.892760498046876,0.11774427443742752,-0.1569923609495163,0.1667662113904953
1721411590728600300,14.905600341796875,0.1388191282749176,-0.2028072625398636,0.15363261103630066
1721411590741473300,14.918473388671876,0.1385136991739273,-0.2790127098560333,0.10033461451530457
1721411590754335000,14.9313349609375,0.15027284622192383,-0.3286454975605011,0.03497203439474106
1721411590767179800,14.9441796875,0.16035212576389313,-0.3188716471195221,-0.003817907767370343
1721411590780048600,14.957048583984376,0.1368338167667389,-0.24892759323120117,-0.009162978269159794
1721411590792910800,14.969910888671874,0.08017606288194656,-0.1719585657119751,0.01191187184303999
1721411590805768700,14.982768798828126,0.041233405470848083,-0.11407908797264099,0.10002918541431427
1721411590818629600,14.995629638671875,-0.018936822190880775,-0.050243668258190155,0.22815817594528198
1721411590831488500,15.008488525390625,-0.07666359096765518,0.0003054326225537807,0.36010506749153137
1721411590844334300,15.021334228515625,-0.10201449692249298,0.031612277030944824,0.44364088773727417
1721411590857209300,15.034209228515625,-0.08231408894062042,0.030543262138962746,0.43050727248191833
1721411590870052900,15.047052978515625,-0.022602014243602753,-0.004123340360820293,0.3387247920036316
1721411590882918100,15.059918212890626,0.017867809161543846,-0.04993823543190956,0.20555615425109863
1721411590895784700,15.07278466796875,0.01191187184303999,-0.08521570265293121,0.08261952549219131
1721411590908628500,15.08562841796875,-0.013591751456260681,-0.12538009881973267,-0.0354301854968071
1721411590921503200,15.098503173828124,-0.02886338345706463,-0.1085812970995903,-0.12202033400535583
1721411590934347300,15.11134716796875,-0.013286318629980087,-0.017867809161543846,-0.13057245314121246
1721411590947209700,15.124209716796875,0.02122756652534008,0.05497787147760391,-0.07941248267889023
1721411590960077600,15.13707763671875,0.043676864355802536,0.058795779943466187,0.009621127508580685
1721411590972910600,15.14991064453125,0.078343465924263,0.012064588256180286,0.09773843735456467
1721411590985784600,15.16278466796875,0.10674870014190674,-0.06520986557006836,0.11041389405727386
1721411590998640000,15.17564013671875,0.09376781433820724,-0.10644327104091644,0.09086620807647705
1721411591011500800,15.188500732421875,0.07696902006864548,-0.08720101416110992,0.04444044828414917
1721411591024359000,15.20135888671875,0.058948494493961334,-0.03420845419168472,-0.01542434748262167
1721411591037217800,15.2142177734375,0.058795779943466187,0.037110064178705215,-0.04245513305068016
1721411591050078200,15.227078125,0.050243668258190155,0.05757404863834381,-0.052381694316864014
1721411591062933000,15.23993310546875,0.03145955875515938,0.01038470957428217,-0.09498954564332962
1721411591075812900,15.252812744140625,0.03344487398862839,-0.03695734590291977,-0.15561792254447937
1721411591088653600,15.265653564453125,0.0328340083360672,-0.05390885844826698,-0.2102903574705124
1721411591101526000,15.278526123046875,-0.00366519158706069,-0.04092797264456749,-0.23625212907791138
1721411591114369500,15.29136962890625,-0.04902193695306778,-0.010842857882380486,-0.22708915174007416
1721411591127229700,15.304229736328125,-0.07895433157682419,0.03726277872920036,-0.1849394589662552
1721411591140087600,15.317087646484374,-0.10674870014190674,0.09162978827953339,-0.11728613078594208
1721411591152950000,15.329949951171875,-0.128434419631958,0.11927144229412079,-0.03741549700498581
1721411591165807000,15.34280712890625,-0.15714508295059204,0.13255776464939117,0.023060163483023643
1721411591178665000,15.3556650390625,-0.18539759516716003,0.15042556822299957,0.03985895588994026
1721411591191509500,15.368509521484375,-0.18417587876319885,0.1794416606426239,0.01542434748262167
1721411591204385500,15.381385498046875,-0.16294831037521362,0.19165897369384766,-0.04398229718208313
1721411591217256400,15.39425634765625,-0.1485929638147354,0.1699732542037964,-0.12049316614866257
1721411591230114000,15.407114013671874,-0.13775011897087097,0.11194105446338654,-0.20891591906547546
1721411591242979000,15.41997900390625,-0.11362093687057495,0.03940080851316452,-0.265573650598526
1721411591255831600,15.43283154296875,-0.07070764899253845,-0.003817907767370343,-0.2590068578720093
1721411591268689400,15.445689453125,-0.035582900047302246,-0.02779436856508255,-0.2171625941991806
1721411591281530400,15.4585302734375,-0.00809396430850029,-0.022602014243602753,-0.15974126756191254
1721411591294411000,15.471410888671874,0.01817324012517929,0.011453723534941673,-0.11331550031900406
1721411591307275500,15.484275634765625,0.04306599870324135,0.0659734457731247,-0.0682641938328743
1721411591320127000,15.497126953125,0.0682641938328743,0.09651670604944229,-0.03039054572582245
1721411591332971000,15.509970947265625,0.08750644326210022,0.10506882518529892,-0.003512475173920393
1721411591345845800,15.522845703125,0.0981965884566307,0.10033461451530457,0.019853120669722557
1721411591358693600,15.535693603515625,0.1088867336511612,0.10170906037092209,0.04795292019844055
1721411591371566300,15.54856640625,0.11255192011594772,0.11133018881082535,0.05757404863834381
1721411591384409600,15.56140966796875,0.11621711403131485,0.12110403180122375,0.04795292019844055
1721411591397268200,15.574268310546875,0.12370020896196365,0.1235474944114685,0.02733621932566166
1721411591410127400,15.58712744140625,0.1241583600640297,0.11988230794668198,-0.01771509274840355
1721411591422986800,15.59998681640625,0.1281289905309677,0.1319468915462494,-0.06872233748435974
1721411591435845600,15.612845703125,0.16142113506793976,0.14782938361167908,-0.1036943718791008
1721411591448703500,15.625703369140625,0.1921171247959137,0.1420261710882187,-0.11194105446338654
1721411591461564700,15.638564697265625,0.21273382008075714,0.1082758679986,-0.09086620807647705
1721411591474422000,15.651422119140625,0.23915374279022217,0.07590000331401825,-0.02367102913558483
1721411591487282400,15.664282470703125,0.2811507284641266,0.055741455405950546,0.07299839705228806
1721411591500140000,15.67714013671875,0.32940909266471863,0.030695978552103043,0.15012013912200928
1721411591512999200,15.689999267578125,0.3692680299282074,0.0019853119738399982,0.2054034322500229
1721411591525858800,15.70285888671875,0.38499781489372253,-0.025656340643763542,0.2275473028421402
1721411591538717200,15.71571728515625,0.35124751925468445,-0.051312681287527084,0.1944078654050827
1721411591551576300,15.728576416015626,0.28695395588874817,-0.02168571576476097,0.14004085958003998
1721411591564438800,15.741438720703124,0.21639901399612427,0.05772676691412926,0.07467827945947647
